TrialNumber,Condition,OptionA,OptionB,EndA,EndB,combination,difference,change,Choice_RT,Choice_Wait,Choice_Commit,Choice_Miss,Press_hit,Play_RT,RT_trialClock_play,ITI_play,Square_timing,Press_miss,Play_win_A,Play_win_B,Late_RT,Play_lost,Play_lost_chosenA,Play_lost_chosenB,Precomm_RT,Precomm_B,Precomm_A,Precomm_miss,Earnings,participant,date,expName,frameRate,
1,Stable,66,67,72,61,5,1,-6,6.7055789799999275,True,False,False,True,0.6318665139999666,15.550287927999989,0.3,0.8,False,True,False,0,False,False,False,0,False,False,False,72,1008,07072021,PreComm_Task,None,
2,Stable,68,81,69,80,15,13,-1,6.046718951000003,True,False,False,True,0.5935223249999808,15.246965247999924,0.7,0.7000000000000001,False,False,True,0,False,False,False,0,False,False,False,80,1008,07072021,PreComm_Task,None,
3,Stable,41,60,44,57,22,19,-3,6.346861184999966,True,False,False,True,0.5794938989999991,15.846974234000072,1.0,0.6000000000000001,False,False,True,0,False,False,False,0,False,False,False,57,1008,07072021,PreComm_Task,None,
4,Stable,42,35,36,41,11,7,-6,6.101346880000051,True,False,False,False,0,0,0.8,0.5000000000000001,True,False,False,16.34743341500007,False,True,False,0,False,False,False,36,1008,07072021,PreComm_Task,None,
5,Stable,36,49,30,55,12,13,6,5.864893312000049,True,False,False,False,0,0,0.4,0.6000000000000001,True,False,False,15.809762001999957,False,True,False,0,False,False,False,30,1008,07072021,PreComm_Task,None,
6,Stable,22,41,23,40,21,19,-1,5.611435574999973,False,True,False,0,0,0,0,0.7000000000000001,0,False,False,0,False,False,False,7.911280765000015,False,True,False,23,1008,07072021,PreComm_Task,None,
7,Stable,40,27,41,26,14,13,1,5.380255445999978,False,True,False,0,0,0,0,0.7000000000000001,0,False,False,0,False,False,False,8.329566891000013,False,True,False,41,1008,07072021,PreComm_Task,None,
8,Stable,47,54,41,60,6,7,6,5.886306009999998,False,True,False,0,0,0,0,0.7000000000000001,0,False,False,0,False,False,False,8.481023089000018,True,False,False,60,1008,07072021,PreComm_Task,None,
9,Stable,50,63,56,57,17,13,-6,5.540309196999942,False,True,False,0,0,0,0,0.7000000000000001,0,False,False,0,False,False,False,8.090365296999948,False,True,False,56,1008,07072021,PreComm_Task,None,
10,Stable,75,56,78,53,19,19,3,5.50478226000007,False,True,False,0,0,0,0,0.7000000000000001,0,False,False,0,False,False,False,8.904654898000103,True,False,False,53,1008,07072021,PreComm_Task,None,
11,Stable,29,36,26,39,7,7,3,5.292375336000077,True,False,False,False,0,0,0.9,0.7000000000000001,True,False,False,15.83913398499999,False,True,False,0,False,False,False,26,1008,07072021,PreComm_Task,None,
12,Stable,66,65,72,59,0,1,6,5.514234725000051,True,False,False,True,0.591771122999944,14.614544286000068,0.6,0.8,False,True,False,0,False,False,False,0,False,False,False,72,1008,07072021,PreComm_Task,None,
13,Stable,36,37,33,40,1,1,3,5.245569588999956,False,True,False,0,0,0,0,0.7000000000000001,0,False,False,0,False,False,False,7.445176371999992,False,True,False,33,1008,07072021,PreComm_Task,None,
14,Stable,49,30,55,24,18,19,6,5.208561694999958,False,True,False,0,0,0,0,0.7000000000000001,0,False,False,0,False,False,False,6.957567421000022,False,True,False,55,1008,07072021,PreComm_Task,None,
15,Stable,55,74,54,75,20,19,1,5.265698429000054,True,False,False,True,0.39111273699995763,14.466347967999923,0.9,0.7000000000000001,False,False,True,0,False,False,False,0,False,False,False,75,1008,07072021,PreComm_Task,None,
16,Stable,31,24,32,23,8,7,1,6.142156263000061,True,False,False,False,0,0,0.5,0.6000000000000001,True,False,False,16.184292786000015,False,True,False,0,False,False,False,32,1008,07072021,PreComm_Task,None,
17,Stable,50,49,51,48,2,1,1,5.274746628999992,False,True,False,0,0,0,0,0.7000000000000001,0,False,False,0,False,False,False,7.52506393900012,False,True,False,51,1008,07072021,PreComm_Task,None,
18,Stable,60,59,57,62,4,1,-3,5.3144353589998445,False,True,False,0,0,0,0,0.7000000000000001,0,False,False,0,False,False,False,7.564508640999975,True,False,False,62,1008,07072021,PreComm_Task,None,
19,Stable,16,23,19,20,10,7,-3,5.682742821000147,False,True,False,0,0,0,0,0.7000000000000001,0,False,False,0,False,False,False,7.882311913000194,True,False,False,20,1008,07072021,PreComm_Task,None,
20,Stable,67,74,68,73,9,7,-1,5.693845235000026,False,True,False,0,0,0,0,0.7000000000000001,0,False,False,0,False,False,False,8.392807472000186,False,True,False,68,1008,07072021,PreComm_Task,None,
21,Stable,20,7,23,4,13,13,3,5.068231142000059,True,False,False,True,0.21823221299996476,13.990195915999948,0.8,0.7000000000000001,False,True,False,0,False,False,False,0,False,False,False,23,1008,07072021,PreComm_Task,None,
22,Stable,84,65,78,71,23,19,-6,5.652072952000026,True,False,False,True,0.5838007539998671,14.452077164000002,0.3,0.6000000000000001,False,True,False,0,False,False,False,0,False,False,False,78,1008,07072021,PreComm_Task,None,
23,Stable,30,29,29,30,3,1,-1,5.298192162000078,True,False,False,False,0,0,0.9,0.5000000000000001,True,False,False,15.643227429000035,False,False,True,0,False,False,False,30,1008,07072021,PreComm_Task,None,
24,Stable,82,69,79,72,16,13,-3,5.420881410999982,False,True,False,0,0,0,0,0.6000000000000001,0,False,False,0,False,False,False,8.170469292999996,False,True,False,79,1008,07072021,PreComm_Task,None,
25,Stable,85,72,86,71,14,13,1,5.063976525000044,False,True,False,0,0,0,0,0.6000000000000001,0,False,False,0,False,False,False,7.6637803569999505,False,True,False,86,1008,07072021,PreComm_Task,None,
26,Stable,50,51,47,54,1,1,3,5.566749780000009,False,True,False,0,0,0,0,0.6000000000000001,0,False,False,0,False,False,False,7.816872805000003,False,True,False,47,1008,07072021,PreComm_Task,None,
27,Stable,48,55,47,56,8,7,1,5.566643665000129,False,True,False,0,0,0,0,0.6000000000000001,0,False,False,0,False,False,False,8.31635363600003,True,False,False,56,1008,07072021,PreComm_Task,None,
28,Stable,69,50,66,53,22,19,-3,5.68817911799988,False,True,False,0,0,0,0,0.6000000000000001,0,False,False,0,False,False,False,7.988360938999904,True,False,False,53,1008,07072021,PreComm_Task,None,
29,Stable,43,42,49,36,0,1,6,4.8884507820000636,True,False,False,False,0,0,0.4,0.6000000000000001,True,False,False,14.829038374999982,False,False,True,0,False,False,False,36,1008,07072021,PreComm_Task,None,
30,Stable,79,66,73,72,17,13,-6,5.8784784800000125,False,True,False,0,0,0,0,0.7000000000000001,0,False,False,0,False,False,False,8.830349515999842,False,True,False,73,1008,07072021,PreComm_Task,None,
31,Stable,51,52,50,53,2,1,1,5.614724690000003,False,True,False,0,0,0,0,0.7000000000000001,0,False,False,0,False,False,False,8.316009257000132,True,False,False,53,1008,07072021,PreComm_Task,None,
32,Stable,32,45,29,48,13,13,3,5.476311909999822,False,True,False,0,0,0,0,0.7000000000000001,0,False,False,0,False,False,False,8.12681203499983,False,True,False,29,1008,07072021,PreComm_Task,None,
33,Stable,85,72,91,66,12,13,6,5.414276385999983,False,True,False,0,0,0,0,0.7000000000000001,0,False,False,0,False,False,False,8.362827517000142,True,False,False,66,1008,07072021,PreComm_Task,None,
34,Stable,10,11,11,10,3,1,-1,5.081823710000208,False,True,False,0,0,0,0,0.7000000000000001,0,False,False,0,False,False,False,8.08151448500007,False,True,False,11,1008,07072021,PreComm_Task,None,
35,Stable,39,46,42,43,10,7,-3,4.926054047999969,True,False,False,True,0.6039428439999028,13.626801195000098,0.2,0.7000000000000001,False,False,True,0,False,False,False,0,False,False,False,43,1008,07072021,PreComm_Task,None,
36,Stable,46,39,52,33,6,7,6,5.674067448999949,False,True,False,0,0,0,0,0.6000000000000001,0,False,False,0,False,False,False,8.524187174999952,True,False,False,33,1008,07072021,PreComm_Task,None,
37,Stable,29,48,28,49,20,19,1,5.083634520000032,False,True,False,0,0,0,0,0.6000000000000001,0,False,False,0,False,False,False,7.433030598999949,True,False,False,49,1008,07072021,PreComm_Task,None,
38,Stable,7,14,4,17,7,7,3,5.883637632000045,True,False,False,True,0.24635560399997303,14.932974200999979,0.9,0.6000000000000001,False,False,True,0,False,False,False,0,False,False,False,17,1008,07072021,PreComm_Task,None,
39,Stable,38,57,39,56,21,19,-1,5.1530797400000665,False,True,False,0,0,0,0,0.5000000000000001,0,False,False,0,False,False,False,7.901955600000065,False,True,False,39,1008,07072021,PreComm_Task,None,
40,Stable,22,23,25,20,4,1,-3,6.374850425999966,False,True,False,0,0,0,0,0.5000000000000001,0,False,False,0,False,False,False,9.124414129999877,True,False,False,20,1008,07072021,PreComm_Task,None,
41,Stable,29,16,28,17,15,13,-1,5.398255414000005,True,False,False,True,0.21558844699984547,14.309793577000164,0.8,0.5000000000000001,False,False,False,15.612026524000157,False,False,True,0,False,False,False,17,1008,07072021,PreComm_Task,None,
42,Stable,59,40,53,46,23,19,-6,5.4653535559998545,True,False,False,True,0.4856192629999896,14.365659715999982,0.5,0.6000000000000001,False,True,False,0,False,False,False,0,False,False,False,53,1008,07072021,PreComm_Task,None,
43,Stable,31,12,37,6,18,19,6,5.14154970300001,True,False,False,False,0,0,0.3,0.5000000000000001,True,False,False,14.875183230999937,False,False,True,0,False,False,False,6,1008,07072021,PreComm_Task,None,
44,Stable,43,56,46,53,16,13,-3,5.224526884999932,True,False,False,True,0.5428919519999909,14.075599732,0.4,0.6000000000000001,False,False,True,0,False,False,False,0,False,False,False,53,1008,07072021,PreComm_Task,None,
45,Stable,13,6,7,12,11,7,-6,5.1970552430000225,True,False,False,False,0,0,0.3,0.5000000000000001,True,False,False,14.943380901999944,False,False,True,0,False,False,False,12,1008,07072021,PreComm_Task,None,
46,Stable,59,58,53,64,5,1,-6,5.523806634000039,True,False,False,True,0.29362771299997803,14.42113079800015,0.7,0.6000000000000001,False,False,True,0,False,False,False,0,False,False,False,64,1008,07072021,PreComm_Task,None,
47,Stable,64,57,63,58,9,7,-1,5.144083525000042,True,False,False,False,0,0,0.7,0.5000000000000001,True,False,False,15.278953196999964,False,False,True,0,False,False,False,58,1008,07072021,PreComm_Task,None,
48,Stable,25,6,28,3,19,19,3,5.37150246200008,True,False,False,True,0.576297975999978,14.271742549999999,0.4,0.6000000000000001,False,True,False,0,False,False,False,0,False,False,False,28,1008,07072021,PreComm_Task,None,
49,Stable,31,12,37,6,18,19,6,15.539793837000161,True,False,False,False,0,0,0.3,0.5000000000000001,True,False,False,25.266440409000097,False,True,False,0,False,False,False,37,1008,07072021,PreComm_Task,None,
50,Stable,40,47,46,41,11,7,-6,5.04316433200006,True,False,False,True,0.540023261999977,13.793414483000106,0.3,0.6000000000000001,False,True,False,0,False,False,False,0,False,False,False,46,1008,07072021,PreComm_Task,None,
51,Stable,67,48,68,47,20,19,1,5.495824973000026,True,False,False,True,0.29814943900009894,14.396166985000036,0.7,0.5000000000000001,False,True,False,0,False,False,False,0,False,False,False,68,1008,07072021,PreComm_Task,None,
52,Stable,35,42,38,39,10,7,-3,5.644308894999995,True,False,False,False,0,0,0.9,0.40000000000000013,True,False,False,15.889678746000072,False,True,False,0,False,False,False,38,1008,07072021,PreComm_Task,None,
53,Stable,41,60,42,59,21,19,-1,5.276583852000158,True,False,False,False,0,0,0.3,0.5000000000000001,True,False,False,15.011403830000063,False,False,True,0,False,False,False,59,1008,07072021,PreComm_Task,None,
54,Stable,39,20,36,23,22,19,-3,5.323427423000112,False,True,False,0,0,0,0,0.6000000000000001,0,False,False,0,False,False,False,7.522921218000192,False,True,False,36,1008,07072021,PreComm_Task,None,
55,Stable,45,52,39,58,6,7,6,5.825349148999976,False,True,False,0,0,0,0,0.6000000000000001,0,False,False,0,False,False,False,8.075384217999954,True,False,False,58,1008,07072021,PreComm_Task,None,
56,Stable,19,6,13,12,17,13,-6,5.044367096999849,True,False,False,False,0,0,0.4,0.6000000000000001,True,False,False,14.969390140999849,False,True,False,0,False,False,False,13,1008,07072021,PreComm_Task,None,
57,Stable,22,21,25,18,1,1,3,6.0993316009999035,False,True,False,0,0,0,0,0.7000000000000001,0,False,False,0,False,False,False,8.300314843000024,False,True,False,25,1008,07072021,PreComm_Task,None,
58,Stable,35,42,36,41,9,7,-1,6.271651660999851,False,True,False,0,0,0,0,0.7000000000000001,0,False,False,0,False,False,False,8.771076195999967,True,False,False,41,1008,07072021,PreComm_Task,None,
59,Stable,33,46,32,47,14,13,1,5.138148482000133,False,True,False,0,0,0,0,0.7000000000000001,0,False,False,0,False,False,False,7.6882543230001374,True,False,False,47,1008,07072021,PreComm_Task,None,
60,Stable,57,58,63,52,5,1,-6,5.54429835000019,False,True,False,0,0,0,0,0.7000000000000001,0,False,False,0,False,False,False,7.694522133000191,False,True,False,63,1008,07072021,PreComm_Task,None,
61,Stable,28,21,31,18,7,7,3,5.473541587,True,False,False,True,0.5396020519999638,14.223059036999985,0.3,0.7000000000000001,False,True,False,0,False,False,False,0,False,False,False,31,1008,07072021,PreComm_Task,None,
62,Stable,37,24,36,25,15,13,-1,5.151106908999964,True,False,False,False,0,0,0.3,0.6000000000000001,True,False,False,14.989588544000071,False,False,True,0,False,False,False,25,1008,07072021,PreComm_Task,None,
63,Stable,84,65,87,62,19,19,3,6.369100173000106,False,True,False,0,0,0,0,0.7000000000000001,0,False,False,0,False,False,False,8.319872555000074,False,True,False,87,1008,07072021,PreComm_Task,None,
64,Stable,30,31,29,32,2,1,1,5.974391095999863,False,True,False,0,0,0,0,0.7000000000000001,0,False,False,0,False,False,False,8.47388098600004,False,True,False,29,1008,07072021,PreComm_Task,None,
65,Stable,68,67,67,68,3,1,-1,5.419116840000015,False,True,False,0,0,0,0,0.7000000000000001,0,False,False,0,False,False,False,7.619563514999982,True,False,False,68,1008,07072021,PreComm_Task,None,
66,Stable,11,30,17,24,23,19,-6,5.396984255999996,True,False,False,True,0.5039972189999844,14.097889050000049,0.3,0.7000000000000001,False,False,True,0,False,False,False,0,False,False,False,24,1008,07072021,PreComm_Task,None,
67,Stable,21,20,27,14,0,1,6,5.68825274400001,False,True,False,0,0,0,0,0.6000000000000001,0,False,False,0,False,False,False,7.887522932000138,True,False,False,14,1008,07072021,PreComm_Task,None,
68,Stable,14,7,15,6,8,7,1,5.148931676000075,False,True,False,0,0,0,0,0.6000000000000001,0,False,False,0,False,False,False,7.6486418340000455,False,True,False,15,1008,07072021,PreComm_Task,None,
69,Stable,46,59,40,65,12,13,6,5.514371758999914,True,False,False,False,0,0,0.7,0.6000000000000001,True,False,False,15.757910094999943,False,True,False,0,False,False,False,40,1008,07072021,PreComm_Task,None,
70,Stable,74,61,71,64,16,13,-3,5.820668446000127,False,True,False,0,0,0,0,0.7000000000000001,0,False,False,0,False,False,False,8.071536324000135,True,False,False,64,1008,07072021,PreComm_Task,None,
71,Stable,53,52,50,55,4,1,-3,5.387057744999993,False,True,False,0,0,0,0,0.7000000000000001,0,False,False,0,False,False,False,7.586556540000174,False,True,False,50,1008,07072021,PreComm_Task,None,
72,Stable,50,37,53,34,13,13,3,5.316014785000107,True,False,False,True,0.6516213280001466,14.764720313999987,0.9,0.7000000000000001,False,True,False,0,False,False,False,0,False,False,False,53,1008,07072021,PreComm_Task,None,
73,Stable,41,42,47,36,5,1,-6,7.196713025000008,True,False,False,True,0.4091570610000872,15.897866927999985,0.4,0.6000000000000001,False,True,False,0,False,False,False,0,False,False,False,47,1008,07072021,PreComm_Task,None,
74,Stable,73,86,67,92,12,13,6,5.949286291000135,False,True,False,0,0,0,0,0.5000000000000001,0,False,False,0,False,False,False,8.199141199999985,True,False,False,92,1008,07072021,PreComm_Task,None,
75,Stable,24,37,25,36,15,13,-1,5.839074336000067,False,True,False,0,0,0,0,0.5000000000000001,0,False,False,0,False,False,False,8.038909554999918,True,False,False,36,1008,07072021,PreComm_Task,None,
76,Stable,24,31,21,34,7,7,3,5.994619176000015,False,True,False,0,0,0,0,0.5000000000000001,0,False,False,0,False,False,False,8.243300426000133,True,False,False,34,1008,07072021,PreComm_Task,None,
77,Stable,67,68,70,65,4,1,-3,5.895380049000323,True,False,False,True,0.2155024229996343,14.707036802999937,0.7,0.5000000000000001,False,True,False,0,False,False,False,0,False,False,False,70,1008,07072021,PreComm_Task,None,
78,Stable,89,70,90,69,20,19,1,6.593358889000228,False,True,False,0,0,0,0,0.40000000000000013,0,False,False,0,False,False,False,9.343544789000134,False,True,False,90,1008,07072021,PreComm_Task,None,
79,Stable,40,27,34,33,17,13,-6,6.026965174999987,False,True,False,0,0,0,0,0.40000000000000013,0,False,False,0,False,False,False,8.624631775000125,False,True,False,34,1008,07072021,PreComm_Task,None,
80,Stable,47,28,53,22,18,19,6,5.912993522999841,False,True,False,0,0,0,0,0.40000000000000013,0,False,False,0,False,False,False,8.563664456999959,False,True,False,53,1008,07072021,PreComm_Task,None,
81,Stable,27,40,26,41,14,13,1,5.8649197040003855,False,True,False,0,0,0,0,0.40000000000000013,0,False,False,0,False,False,False,8.464339703000405,True,False,False,41,1008,07072021,PreComm_Task,None,
82,Stable,10,9,16,3,0,1,6,5.988286225000138,True,False,False,False,0,0,0.4,0.40000000000000013,True,False,False,15.723037072000352,False,True,False,0,False,False,False,16,1008,07072021,PreComm_Task,None,
83,Stable,58,65,64,59,11,7,-6,6.38028615300027,False,True,False,0,0,0,0,0.5000000000000001,0,False,False,0,False,False,False,8.780696316000103,True,False,False,59,1008,07072021,PreComm_Task,None,
84,Stable,52,59,55,56,10,7,-3,5.830398404999869,True,False,False,True,0.21648376400025882,14.650458066999818,0.7,0.5000000000000001,False,False,True,0,False,False,False,0,False,False,False,56,1008,07072021,PreComm_Task,None,
85,Stable,70,63,69,64,9,7,-1,5.594004759999734,True,False,False,False,0,0,0.4,0.40000000000000013,True,False,False,15.329722908999884,False,False,True,0,False,False,False,64,1008,07072021,PreComm_Task,None,
86,Stable,17,36,18,35,21,19,-1,5.528850736000095,False,True,False,0,0,0,0,0.5000000000000001,0,False,False,0,False,False,False,8.128781942999922,True,False,False,35,1008,07072021,PreComm_Task,None,
87,Stable,51,64,54,61,16,13,-3,5.340898262000337,False,True,False,0,0,0,0,0.5000000000000001,0,False,False,0,False,False,False,7.540589180000097,True,False,False,61,1008,07072021,PreComm_Task,None,
88,Stable,71,72,68,75,1,1,3,5.932551253999918,True,False,False,False,0,0,0.8,0.5000000000000001,True,False,False,16.170386515000246,False,False,True,0,False,False,False,75,1008,07072021,PreComm_Task,None,
89,Stable,49,30,52,27,19,19,3,6.183736532999774,False,True,False,0,0,0,0,0.6000000000000001,0,False,False,0,False,False,False,8.783556106000106,False,True,False,52,1008,07072021,PreComm_Task,None,
90,Stable,11,10,12,9,2,1,1,5.721755306999967,True,False,False,True,0.2148010650003016,14.638625058000343,0.8,0.6000000000000001,False,True,False,0,False,False,False,0,False,False,False,12,1008,07072021,PreComm_Task,None,
91,Stable,76,63,79,60,13,13,3,5.493588666000051,False,True,False,0,0,0,0,0.5000000000000001,0,False,False,0,False,False,False,8.093024084999797,False,True,False,79,1008,07072021,PreComm_Task,None,
92,Stable,28,21,34,15,6,7,6,5.97878508399981,False,True,False,0,0,0,0,0.5000000000000001,0,False,False,0,False,False,False,8.178041606000079,False,True,False,34,1008,07072021,PreComm_Task,None,
93,Stable,14,15,15,14,3,1,-1,5.826630505000139,True,False,False,True,0.21485334599992711,14.638618970000152,0.7,0.5000000000000001,False,True,False,0,False,False,False,0,False,False,False,15,1008,07072021,PreComm_Task,None,
94,Stable,29,48,32,45,22,19,-3,5.439084254000136,False,True,False,0,0,0,0,0.40000000000000013,0,False,False,0,False,False,False,7.889620887000092,True,False,False,45,1008,07072021,PreComm_Task,None,
95,Stable,69,88,75,82,23,19,-6,5.693315691000407,True,False,False,False,0,0,0.3,0.40000000000000013,True,False,False,15.327076250000118,False,True,False,0,False,False,False,75,1008,07072021,PreComm_Task,None,
96,Stable,75,68,76,67,8,7,1,5.628617142999701,False,True,False,0,0,0,0,0.5000000000000001,0,False,False,0,False,False,False,8.078493487999822,False,True,False,76,1008,07072021,PreComm_Task,None,
