TrialNumber,Condition,OptionA,OptionB,EndA,EndB,combination,difference,change,Choice_RT,Choice_Wait,Choice_Commit,Choice_Miss,Press_hit,Play_RT,RT_trialClock_play,ITI_play,Square_timing,Press_miss,Play_win_A,Play_win_B,Late_RT,Play_lost,Play_lost_chosenA,Play_lost_chosenB,Precomm_RT,Precomm_B,Precomm_A,Precomm_miss,Earnings,participant,date,expName,frameRate,
1,Volatile,44,43,60,27,0,1,16,6.306001572986133,False,True,False,0,0,0,0,0.8,0,False,False,0,False,False,False,10.24811702198349,False,True,False,60,1158,01112021,PreComm_Task,None,
2,Volatile,42,35,29,48,10,7,-13,5.84895618900191,False,True,False,0,0,0,0,0.8,0,False,False,0,False,False,False,7.99825850702473,False,True,False,29,1158,01112021,PreComm_Task,None,
3,Volatile,40,39,51,28,2,1,11,5.544366585992975,False,True,False,0,0,0,0,0.8,0,False,False,0,False,False,False,8.094016481976723,False,True,False,51,1158,01112021,PreComm_Task,None,
4,Volatile,56,37,45,48,21,19,-11,5.676346186985029,False,True,False,0,0,0,0,0.8,0,False,False,0,False,False,False,8.025427337997826,False,True,False,45,1158,01112021,PreComm_Task,None,
5,Volatile,43,50,27,66,6,7,16,6.459314142994117,False,True,False,0,0,0,0,0.8,0,False,False,0,False,False,False,9.009536751982523,True,False,False,66,1158,01112021,PreComm_Task,None,
6,Volatile,47,40,58,29,8,7,11,5.419246053992538,False,True,False,0,0,0,0,0.8,0,False,False,0,False,False,False,8.270065652002813,True,False,False,29,1158,01112021,PreComm_Task,None,
7,Volatile,52,45,36,61,11,7,-16,5.752466641017236,False,True,False,0,0,0,0,0.8,0,False,False,0,False,False,False,8.3518312080123,False,True,False,36,1158,01112021,PreComm_Task,None,
8,Volatile,50,49,39,60,3,1,-11,6.1676953499845695,False,True,False,0,0,0,0,0.8,0,False,False,0,False,False,False,9.117647496983409,True,False,False,60,1158,01112021,PreComm_Task,None,
9,Volatile,71,52,84,39,19,19,13,6.27493744797539,False,True,False,0,0,0,0,0.8,0,False,False,0,False,False,False,9.224164727987954,False,True,False,84,1158,01112021,PreComm_Task,None,
10,Volatile,28,47,44,31,23,19,-16,8.294332364981528,False,False,True,0,0,0,0,0.8,0,False,False,0,False,False,False,0,False,True,False,0,1158,01112021,PreComm_Task,None,
11,Volatile,74,61,61,74,16,13,-13,5.48505026998464,False,True,False,0,0,0,0,0.8,0,False,False,0,False,False,False,7.984646155993687,False,True,False,61,1158,01112021,PreComm_Task,None,
12,Volatile,24,23,11,36,4,1,-13,5.799464674986666,False,True,False,0,0,0,0,0.8,0,False,False,0,False,False,False,8.14947896299418,False,True,False,11,1158,01112021,PreComm_Task,None,
13,Volatile,50,43,63,30,7,7,13,6.291383032978047,False,True,False,0,0,0,0,0.8,0,False,False,0,False,False,False,8.841050088987686,False,True,False,63,1158,01112021,PreComm_Task,None,
14,Volatile,30,49,43,36,22,19,-13,6.534153952001361,False,True,False,0,0,0,0,0.8,0,False,False,0,False,False,False,8.9337940189871,True,False,False,36,1158,01112021,PreComm_Task,None,
15,Volatile,51,52,67,36,5,1,-16,6.212740446004318,False,True,False,0,0,0,0,0.8,0,False,False,0,False,False,False,9.163356411008863,False,True,False,67,1158,01112021,PreComm_Task,None,
16,Volatile,36,35,49,22,1,1,13,5.871586544992169,False,True,False,0,0,0,0,0.8,0,False,False,0,False,False,False,9.321416438993765,False,True,False,49,1158,01112021,PreComm_Task,None,
17,Volatile,47,34,36,45,15,13,-11,5.741886005998822,False,True,False,0,0,0,0,0.8,0,False,False,0,False,False,False,8.041648921003798,False,True,False,36,1158,01112021,PreComm_Task,None,
18,Volatile,55,36,66,25,20,19,11,5.462345022999216,False,True,False,0,0,0,0,0.8,0,False,False,0,False,False,False,7.810599376010941,False,True,False,66,1158,01112021,PreComm_Task,None,
19,Volatile,46,33,59,20,13,13,13,5.671474656992359,False,True,False,0,0,0,0,0.8,0,False,False,0,False,False,False,8.171465326973703,False,True,False,59,1158,01112021,PreComm_Task,None,
20,Volatile,58,71,42,87,12,13,16,5.490356772002997,False,True,False,0,0,0,0,0.8,0,False,False,0,False,False,False,8.940949265001109,True,False,False,87,1158,01112021,PreComm_Task,None,
21,Volatile,29,48,13,64,18,19,16,5.763629648979986,False,True,False,0,0,0,0,0.8,0,False,False,0,False,False,False,8.313707961991895,True,False,False,64,1158,01112021,PreComm_Task,None,
22,Volatile,54,47,43,58,9,7,-11,6.279635009996127,False,True,False,0,0,0,0,0.8,0,False,False,0,False,False,False,8.779951403004816,False,True,False,43,1158,01112021,PreComm_Task,None,
23,Volatile,67,54,78,43,14,13,11,5.434692176990211,False,True,False,0,0,0,0,0.8,0,False,False,0,False,False,False,8.188695638003992,False,True,False,78,1158,01112021,PreComm_Task,None,
24,Volatile,69,56,53,72,17,13,-16,5.459483126003761,False,True,False,0,0,0,0,0.8,0,False,False,0,False,False,False,7.959217830997659,False,True,False,53,1158,01112021,PreComm_Task,None,
25,Volatile,63,56,79,40,6,7,16,5.4918410269892775,False,True,False,0,0,0,0,0.8,0,False,False,0,False,False,False,8.391631923004752,False,True,False,79,1158,01112021,PreComm_Task,None,
26,Volatile,64,51,51,64,16,13,-13,5.618894936982542,False,True,False,0,0,0,0,0.8,0,False,False,0,False,False,False,8.019347336987266,False,True,False,51,1158,01112021,PreComm_Task,None,
27,Volatile,25,26,12,39,1,1,13,6.6312479990010615,False,True,False,0,0,0,0,0.8,0,False,False,0,False,False,False,9.031692454009317,True,False,False,39,1158,01112021,PreComm_Task,None,
28,Volatile,61,68,74,55,10,7,-13,7.3187715749954805,False,True,False,0,0,0,0,0.8,0,False,False,0,False,False,False,10.116572204977274,True,False,False,55,1158,01112021,PreComm_Task,None,
29,Volatile,20,39,4,55,18,19,16,6.047751457022969,False,True,False,0,0,0,0,0.8,0,False,False,0,False,False,False,8.44731754102395,True,False,False,55,1158,01112021,PreComm_Task,None,
30,Volatile,63,56,52,67,9,7,-11,5.705300592991989,False,True,False,0,0,0,0,0.8,0,False,False,0,False,False,False,8.655599512974732,False,True,False,52,1158,01112021,PreComm_Task,None,
31,Volatile,43,24,32,35,21,19,-11,5.52742023600149,False,True,False,0,0,0,0,0.8,0,False,False,0,False,False,False,7.882012059999397,False,True,False,32,1158,01112021,PreComm_Task,None,
32,Volatile,40,41,56,25,5,1,-16,5.85617107397411,False,True,False,0,0,0,0,0.8,0,False,False,0,False,False,False,8.405155039974488,True,False,False,25,1158,01112021,PreComm_Task,None,
33,Volatile,41,60,28,73,19,19,13,5.763965983001981,False,True,False,0,0,0,0,0.8,0,False,False,0,False,False,False,9.127016808983171,True,False,False,73,1158,01112021,PreComm_Task,None,
34,Volatile,64,57,75,46,8,7,11,6.278929888998391,False,True,False,0,0,0,0,0.8,0,False,False,0,False,False,False,8.875996413989924,False,True,False,75,1158,01112021,PreComm_Task,None,
35,Volatile,28,41,15,54,13,13,13,5.36846652298118,False,True,False,0,0,0,0,0.8,0,False,False,0,False,False,False,8.316767147975042,True,False,False,54,1158,01112021,PreComm_Task,None,
36,Volatile,56,69,72,53,17,13,-16,6.073073679988738,False,True,False,0,0,0,0,0.8,0,False,False,0,False,False,False,8.522567436972167,True,False,False,53,1158,01112021,PreComm_Task,None,
37,Volatile,74,55,61,68,22,19,-13,5.61187010697904,False,True,False,0,0,0,0,0.8,0,False,False,0,False,False,False,8.00950944799115,False,True,False,61,1158,01112021,PreComm_Task,None,
38,Volatile,46,39,30,55,11,7,-16,6.021841993991984,False,True,False,0,0,0,0,0.8,0,False,False,0,False,False,False,8.471799912978895,False,True,False,30,1158,01112021,PreComm_Task,None,
39,Volatile,19,32,8,43,14,13,11,6.040933385986136,False,True,False,0,0,0,0,0.8,0,False,False,0,False,False,False,8.492073409986915,True,False,False,43,1158,01112021,PreComm_Task,None,
40,Volatile,78,59,89,48,20,19,11,5.745922912989045,False,True,False,0,0,0,0,0.8,0,False,False,0,False,False,False,8.194825419981498,False,True,False,89,1158,01112021,PreComm_Task,None,
41,Volatile,68,55,84,39,12,13,16,5.96577805900597,False,True,False,0,0,0,0,0.8,0,False,False,0,False,False,False,8.764626213000156,False,True,False,84,1158,01112021,PreComm_Task,None,
42,Volatile,20,39,36,23,23,19,-16,5.735017322003841,False,True,False,0,0,0,0,0.8,0,False,False,0,False,False,False,8.485738106013741,True,False,False,23,1158,01112021,PreComm_Task,None,
43,Volatile,56,57,40,73,0,1,16,5.685512882017065,False,True,False,0,0,0,0,0.8,0,False,False,0,False,False,False,8.285443015018245,True,False,False,73,1158,01112021,PreComm_Task,None,
44,Volatile,41,40,30,51,3,1,-11,6.005610733001959,False,True,False,0,0,0,0,0.8,0,False,False,0,False,False,False,8.50634473701939,True,False,False,51,1158,01112021,PreComm_Task,None,
45,Volatile,25,26,14,37,2,1,11,6.567032806982752,False,True,False,0,0,0,0,0.8,0,False,False,0,False,False,False,9.463994146994082,True,False,False,37,1158,01112021,PreComm_Task,None,
46,Volatile,29,30,42,17,4,1,-13,5.677590415987652,False,True,False,0,0,0,0,0.8,0,False,False,0,False,False,False,8.177656885993201,True,False,False,17,1158,01112021,PreComm_Task,None,
47,Volatile,32,45,43,34,15,13,-11,5.8152953349926975,False,True,False,0,0,0,0,0.8,0,False,False,0,False,False,False,9.065917126979912,True,False,False,34,1158,01112021,PreComm_Task,None,
48,Volatile,47,54,34,67,7,7,13,5.770430771983229,False,True,False,0,0,0,0,0.8,0,False,False,0,False,False,False,8.520040235976921,True,False,False,67,1158,01112021,PreComm_Task,None,
49,Volatile,49,50,65,34,5,1,-16,162.95969730601064,False,False,True,0,0,0,0,0.8,0,False,False,0,False,False,False,0,True,False,False,0,1158,01112021,PreComm_Task,None,
50,Volatile,61,62,72,51,3,1,-11,5.88133647601353,False,True,False,0,0,0,0,0.8,0,False,False,0,False,False,False,9.131375577999279,True,False,False,51,1158,01112021,PreComm_Task,None,
51,Volatile,58,71,47,82,14,13,11,5.836809948988957,False,True,False,0,0,0,0,0.8,0,False,False,0,False,False,False,8.280957320996094,True,False,False,82,1158,01112021,PreComm_Task,None,
52,Volatile,27,20,16,31,9,7,-11,6.643236825009808,False,True,False,0,0,0,0,0.8,0,False,False,0,False,False,False,9.042302001995267,False,True,False,16,1158,01112021,PreComm_Task,None,
53,Volatile,57,70,73,54,17,13,-16,5.649415357998805,False,True,False,0,0,0,0,0.8,0,False,False,0,False,False,False,7.999167786998441,True,False,False,54,1158,01112021,PreComm_Task,None,
54,Volatile,61,68,74,55,10,7,-13,5.607695348007837,False,True,False,0,0,0,0,0.8,0,False,False,0,False,False,False,8.00518537100288,True,False,False,55,1158,01112021,PreComm_Task,None,
55,Volatile,40,21,24,37,23,19,-16,5.209887960983906,False,True,False,0,0,0,0,0.8,0,False,False,0,False,False,False,7.156479085999308,False,True,False,24,1158,01112021,PreComm_Task,None,
56,Volatile,25,26,38,13,4,1,-13,5.524488758994266,False,True,False,0,0,0,0,0.8,0,False,False,0,False,False,False,8.02559774700785,True,False,False,13,1158,01112021,PreComm_Task,None,
57,Volatile,44,63,57,50,22,19,-13,5.506911524978932,False,True,False,0,0,0,0,0.8,0,False,False,0,False,False,False,7.906903758004773,True,False,False,50,1158,01112021,PreComm_Task,None,
58,Volatile,53,52,64,41,2,1,11,6.328940717998194,False,True,False,0,0,0,0,0.8,0,False,False,0,False,False,False,9.229418397997506,True,False,False,41,1158,01112021,PreComm_Task,None,
59,Volatile,54,35,70,19,18,19,16,6.656934306025505,False,True,False,0,0,0,0,0.8,0,False,False,0,False,False,False,9.10683556299773,False,True,False,70,1158,01112021,PreComm_Task,None,
60,Volatile,43,36,54,25,8,7,11,5.735904656001367,False,True,False,0,0,0,0,0.8,0,False,False,0,False,False,False,8.235713934001978,False,True,False,54,1158,01112021,PreComm_Task,None,
61,Volatile,21,22,8,35,1,1,13,5.461073926009703,False,True,False,0,0,0,0,0.8,0,False,False,0,False,False,False,8.210568515001796,False,True,False,8,1158,01112021,PreComm_Task,None,
62,Volatile,44,63,31,76,19,19,13,6.410112690995447,False,True,False,0,0,0,0,0.8,0,False,False,0,False,False,False,8.912438836006913,True,False,False,76,1158,01112021,PreComm_Task,None,
63,Volatile,65,52,52,65,16,13,-13,5.709398059989326,False,True,False,0,0,0,0,0.8,0,False,False,0,False,False,False,8.508622610010207,False,True,False,52,1158,01112021,PreComm_Task,None,
64,Volatile,18,31,5,44,13,13,13,5.386767611984396,False,True,False,0,0,0,0,0.8,0,False,False,0,False,False,False,8.087550244003069,True,False,False,44,1158,01112021,PreComm_Task,None,
65,Volatile,38,25,27,36,15,13,-11,5.218729766987963,False,True,False,0,0,0,0,0.8,0,False,False,0,False,False,False,7.8188799530034885,False,True,False,27,1158,01112021,PreComm_Task,None,
66,Volatile,43,24,54,13,20,19,11,5.986839724006131,False,True,False,0,0,0,0,0.8,0,False,False,0,False,False,False,9.387382200016873,False,True,False,54,1158,01112021,PreComm_Task,None,
67,Volatile,47,54,31,70,6,7,16,5.97669521800708,False,True,False,0,0,0,0,0.8,0,False,False,0,False,False,False,8.427414973004488,True,False,False,70,1158,01112021,PreComm_Task,None,
68,Volatile,27,34,14,47,7,7,13,5.496495756000513,False,True,False,0,0,0,0,0.8,0,False,False,0,False,False,False,8.847260882990668,True,False,False,47,1158,01112021,PreComm_Task,None,
69,Volatile,28,29,12,45,0,1,16,5.511340816010488,False,True,False,0,0,0,0,0.8,0,False,False,0,False,False,False,8.066068679996533,True,False,False,45,1158,01112021,PreComm_Task,None,
70,Volatile,53,40,69,24,12,13,16,5.561979896010598,False,True,False,0,0,0,0,0.8,0,False,False,0,False,False,False,8.010664405010175,False,True,False,69,1158,01112021,PreComm_Task,None,
71,Volatile,34,27,18,43,11,7,-16,5.431758532999083,False,True,False,0,0,0,0,0.8,0,False,False,0,False,False,False,8.281388050992973,False,True,False,18,1158,01112021,PreComm_Task,None,
72,Volatile,18,37,29,26,21,19,-11,5.591978696000297,False,True,False,0,0,0,0,0.8,0,False,False,0,False,False,False,8.343250015022932,True,False,False,26,1158,01112021,PreComm_Task,None,
73,Volatile,33,32,49,16,0,1,16,5.590861759992549,False,True,False,0,0,0,0,0.8,0,False,False,0,False,False,False,9.041623664001236,True,False,False,16,1158,01112021,PreComm_Task,None,
74,Volatile,33,46,22,57,14,13,11,5.36044950800715,False,True,False,0,0,0,0,0.8,0,False,False,0,False,False,False,7.960592419985915,True,False,False,57,1158,01112021,PreComm_Task,None,
75,Volatile,43,50,56,37,10,7,-13,5.50807964199339,False,True,False,0,0,0,0,0.8,0,False,False,0,False,False,False,8.109719557978678,True,False,False,37,1158,01112021,PreComm_Task,None,
76,Volatile,62,43,75,30,19,19,13,5.765028852998512,False,True,False,0,0,0,0,0.8,0,False,False,0,False,False,False,8.214029761991696,False,True,False,75,1158,01112021,PreComm_Task,None,
77,Volatile,48,49,61,36,4,1,-13,5.7289543059887365,False,True,False,0,0,0,0,0.8,0,False,False,0,False,False,False,10.078364750981564,False,True,False,61,1158,01112021,PreComm_Task,None,
78,Volatile,61,74,72,63,15,13,-11,6.230725991976215,False,True,False,0,0,0,0,0.8,0,False,False,0,False,False,False,8.878716344974237,True,False,False,63,1158,01112021,PreComm_Task,None,
79,Volatile,59,60,46,73,1,1,13,5.620292160019744,False,True,False,0,0,0,0,0.8,0,False,False,0,False,False,False,8.569843777018832,False,True,False,46,1158,01112021,PreComm_Task,None,
80,Volatile,56,55,45,66,3,1,-11,6.6570989019819535,False,True,False,0,0,0,0,0.8,0,False,False,0,False,False,False,11.207225497986656,False,True,False,45,1158,01112021,PreComm_Task,None,
81,Volatile,63,44,50,57,22,19,-13,5.736795598000754,False,True,False,0,0,0,0,0.8,0,False,False,0,False,False,False,8.136485181021271,False,True,False,50,1158,01112021,PreComm_Task,None,
82,Volatile,35,22,51,6,12,13,16,6.586331847996917,False,True,False,0,0,0,0,0.8,0,False,False,0,False,False,False,8.932846430019708,False,True,False,51,1158,01112021,PreComm_Task,None,
83,Volatile,58,71,71,58,16,13,-13,5.587911669979803,False,True,False,0,0,0,0,0.8,0,False,False,0,False,False,False,8.037706400995376,True,False,False,58,1158,01112021,PreComm_Task,None,
84,Volatile,64,77,51,90,13,13,13,5.8244482220034115,False,True,False,0,0,0,0,0.8,0,False,False,0,False,False,False,8.725313932984136,True,False,False,90,1158,01112021,PreComm_Task,None,
85,Volatile,46,39,57,28,8,7,11,6.152339794993168,False,True,False,0,0,0,0,0.8,0,False,False,0,False,False,False,10.73638089801534,False,False,True,0,1158,01112021,PreComm_Task,None,
86,Volatile,52,59,63,48,9,7,-11,6.31650063599227,False,True,False,0,0,0,0,0.8,0,False,False,0,False,False,False,8.86595694697462,True,False,False,48,1158,01112021,PreComm_Task,None,
87,Volatile,59,66,75,50,11,7,-16,6.068899914011126,False,True,False,0,0,0,0,0.8,0,False,False,0,False,False,False,8.76834134600358,True,False,False,50,1158,01112021,PreComm_Task,None,
88,Volatile,37,36,48,25,2,1,11,5.758768214000156,False,True,False,0,0,0,0,0.8,0,False,False,0,False,False,False,8.306882796023274,False,True,False,48,1158,01112021,PreComm_Task,None,
89,Volatile,38,25,22,41,17,13,-16,5.735130329994718,False,True,False,0,0,0,0,0.8,0,False,False,0,False,False,False,8.185685324016958,False,True,False,22,1158,01112021,PreComm_Task,None,
90,Volatile,38,19,49,8,20,19,11,5.665319002990145,False,True,False,0,0,0,0,0.8,0,False,False,0,False,False,False,8.615975826978683,False,True,False,49,1158,01112021,PreComm_Task,None,
91,Volatile,48,41,64,25,6,7,16,5.38533297801041,False,True,False,0,0,0,0,0.8,0,False,False,0,False,False,False,8.73363930900814,False,True,False,64,1158,01112021,PreComm_Task,None,
92,Volatile,71,64,84,51,7,7,13,5.791826843022136,False,True,False,0,0,0,0,0.8,0,False,False,0,False,False,False,8.441812422999647,False,True,False,84,1158,01112021,PreComm_Task,None,
93,Volatile,48,67,32,83,18,19,16,5.426112162997015,False,True,False,0,0,0,0,0.8,0,False,False,0,False,False,False,7.826256606989773,True,False,False,83,1158,01112021,PreComm_Task,None,
94,Volatile,54,53,38,69,5,1,-16,5.416549789981218,False,True,False,0,0,0,0,0.8,0,False,False,0,False,False,False,8.16642434100504,False,True,False,38,1158,01112021,PreComm_Task,None,
95,Volatile,60,79,76,63,23,19,-16,6.535148412978742,False,True,False,0,0,0,0,0.8,0,False,False,0,False,False,False,9.234629449987551,True,False,False,63,1158,01112021,PreComm_Task,None,
96,Volatile,35,54,46,43,21,19,-11,5.542473225010326,False,True,False,0,0,0,0,0.8,0,False,False,0,False,False,False,8.042323619010858,True,False,False,43,1158,01112021,PreComm_Task,None,
