TrialNumber,Condition,OptionA,OptionB,EndA,EndB,combination,difference,change,Choice_RT,Choice_Wait,Choice_Commit,Choice_Miss,Press_hit,Play_RT,RT_trialClock_play,ITI_play,Square_timing,Press_miss,Play_win_A,Play_win_B,Late_RT,Play_lost,Play_lost_chosenA,Play_lost_chosenB,Precomm_RT,Precomm_B,Precomm_A,Precomm_miss,Earnings,participant,date,expName,frameRate,
1,Stable,68,75,62,81,6,7,6,5.708003946987446,True,False,False,True,0.5456980150192976,15.001816456002416,0.7,0.8,False,False,True,0,False,False,False,0,False,False,False,81,1178,22112021,PreComm_Task,None,
2,Stable,7,26,13,20,23,19,-6,6.155030356982024,True,False,False,True,0.592890001978958,15.153865025000414,0.4,0.7000000000000001,False,False,False,16.282389116997365,False,False,True,0,False,False,False,20,1178,22112021,PreComm_Task,None,
3,Stable,74,67,77,64,7,7,3,5.473796734993812,False,True,False,0,0,0,0,0.8,0,False,False,0,False,False,False,8.12468350000563,False,True,False,77,1178,22112021,PreComm_Task,None,
4,Stable,37,30,31,36,11,7,-6,5.696322095987853,True,False,False,True,0.5958277360186912,14.698416394006927,0.4,0.8,False,False,True,0,False,False,False,0,False,False,False,36,1178,22112021,PreComm_Task,None,
5,Stable,24,11,27,8,13,13,3,5.883456902985927,False,True,False,0,0,0,0,0.7000000000000001,0,False,False,0,False,False,False,8.43393341099727,False,True,False,27,1178,22112021,PreComm_Task,None,
6,Stable,56,75,59,72,22,19,-3,6.152179677010281,False,True,False,0,0,0,0,0.7000000000000001,0,False,False,0,False,False,False,8.902330940996762,True,False,False,72,1178,22112021,PreComm_Task,None,
7,Stable,52,33,55,30,19,19,3,6.39538108202396,False,True,False,0,0,0,0,0.7000000000000001,0,False,False,0,False,False,False,9.045726634998573,False,True,False,55,1178,22112021,PreComm_Task,None,
8,Stable,65,66,68,63,4,1,-3,5.494163612020202,False,True,False,0,0,0,0,0.7000000000000001,0,False,False,0,False,False,False,8.046744365012273,True,False,False,63,1178,22112021,PreComm_Task,None,
9,Stable,30,43,24,49,12,13,6,5.336684966023313,True,False,False,True,0.578343484987272,14.537164769019,0.6,0.7000000000000001,False,False,True,0,False,False,False,0,False,False,False,49,1178,22112021,PreComm_Task,None,
10,Stable,70,69,76,63,0,1,6,5.371830994990887,False,True,False,0,0,0,0,0.6000000000000001,0,False,False,0,False,False,False,7.822050555987516,False,True,False,76,1178,22112021,PreComm_Task,None,
11,Stable,9,22,15,16,17,13,-6,6.174315349984681,True,False,False,True,0.5709247400227468,15.274082952993922,0.5,0.6000000000000001,False,False,True,0,False,False,False,0,False,False,False,16,1178,22112021,PreComm_Task,None,
12,Stable,43,56,42,57,14,13,1,6.811183059005998,False,True,False,0,0,0,0,0.5000000000000001,0,False,False,0,False,False,False,9.56133073498495,True,False,False,57,1178,22112021,PreComm_Task,None,
13,Stable,31,50,30,51,20,19,1,5.783118900988484,True,False,False,False,0,0,0.5,0.5000000000000001,True,False,False,15.842563512997003,False,True,False,0,False,False,False,30,1178,22112021,PreComm_Task,None,
14,Stable,20,27,19,28,8,7,1,6.227532941993559,True,False,False,True,0.5817623850016389,15.5283258180134,0.7,0.6000000000000001,False,False,True,0,False,False,False,0,False,False,False,28,1178,22112021,PreComm_Task,None,
15,Stable,50,49,49,50,3,1,-1,6.27209930101526,False,True,False,0,0,0,0,0.5000000000000001,0,False,False,0,False,False,False,8.919477617018856,False,True,False,49,1178,22112021,PreComm_Task,None,
16,Stable,66,65,60,71,5,1,-6,6.06354308599839,False,True,False,0,0,0,0,0.5000000000000001,0,False,False,0,False,False,False,7.713193006988149,False,True,False,60,1178,22112021,PreComm_Task,None,
17,Stable,48,41,45,44,10,7,-3,6.04073709298973,True,False,False,False,0,0,0.4,0.5000000000000001,True,False,False,16.005831327987835,False,False,True,0,False,False,False,44,1178,22112021,PreComm_Task,None,
18,Stable,34,27,33,28,9,7,-1,6.684068783011753,False,True,False,0,0,0,0,0.6000000000000001,0,False,False,0,False,False,False,8.883950966002885,True,False,False,28,1178,22112021,PreComm_Task,None,
19,Stable,8,21,9,20,15,13,-1,5.524936656001955,True,False,False,True,0.5660843040095642,14.925808900006814,0.8,0.6000000000000001,False,False,True,0,False,False,False,0,False,False,False,20,1178,22112021,PreComm_Task,None,
20,Stable,22,23,19,26,1,1,3,5.861864174978109,False,True,False,0,0,0,0,0.5000000000000001,0,False,False,0,False,False,False,8.261038577998988,True,False,False,26,1178,22112021,PreComm_Task,None,
21,Stable,8,7,9,6,2,1,1,5.738822476007044,True,False,False,False,0,0,0.3,0.5000000000000001,True,False,False,15.621570248011267,False,False,True,0,False,False,False,6,1178,22112021,PreComm_Task,None,
22,Stable,54,73,48,79,18,19,6,5.722475332004251,False,True,False,0,0,0,0,0.6000000000000001,0,False,False,0,False,False,False,8.122325619013282,True,False,False,79,1178,22112021,PreComm_Task,None,
23,Stable,80,61,79,62,21,19,-1,6.53978908501449,False,True,False,0,0,0,0,0.6000000000000001,0,False,False,0,False,False,False,8.889384817011887,False,True,False,79,1178,22112021,PreComm_Task,None,
24,Stable,19,32,22,29,16,13,-3,5.912353350984631,True,False,False,False,0,0,0.4,0.6000000000000001,True,False,False,15.99253428800148,False,True,False,0,False,False,False,22,1178,22112021,PreComm_Task,None,
25,Stable,36,55,35,56,20,19,1,6.188375110010384,False,True,False,0,0,0,0,0.7000000000000001,0,False,False,0,False,False,False,8.839612473995658,True,False,False,56,1178,22112021,PreComm_Task,None,
26,Stable,16,15,15,16,3,1,-1,5.909363950020634,True,False,False,True,0.7012198040029034,14.909457396017388,0.3,0.7000000000000001,False,False,True,0,False,False,False,0,False,False,False,16,1178,22112021,PreComm_Task,None,
27,Stable,15,8,12,11,10,7,-3,6.8385410769842565,True,False,False,False,0,0,0.8,0.6000000000000001,True,False,False,17.270546691986965,False,True,False,0,False,False,False,12,1178,22112021,PreComm_Task,None,
28,Stable,39,46,40,45,9,7,-1,5.862025560985785,False,True,False,0,0,0,0,0.7000000000000001,0,False,False,0,False,False,False,8.46194211798138,True,False,False,45,1178,22112021,PreComm_Task,None,
29,Stable,59,58,53,64,5,1,-6,5.850660937023349,False,True,False,0,0,0,0,0.7000000000000001,0,False,False,0,False,False,False,8.348951449996093,False,True,False,53,1178,22112021,PreComm_Task,None,
30,Stable,26,27,23,30,1,1,3,5.560455792001449,False,True,False,0,0,0,0,0.7000000000000001,0,False,False,0,False,False,False,7.910332573985215,True,False,False,30,1178,22112021,PreComm_Task,None,
31,Stable,45,38,46,37,8,7,1,5.858634008996887,False,True,False,0,0,0,0,0.7000000000000001,0,False,False,0,False,False,False,8.25957026600372,False,True,False,46,1178,22112021,PreComm_Task,None,
32,Stable,63,44,57,50,23,19,-6,5.562238507001894,False,True,False,0,0,0,0,0.7000000000000001,0,False,False,0,False,False,False,8.010915790015133,False,True,False,57,1178,22112021,PreComm_Task,None,
33,Stable,49,48,50,47,2,1,1,6.005399935005698,False,True,False,0,0,0,0,0.7000000000000001,0,False,False,0,False,False,False,8.30613816800178,True,False,False,47,1178,22112021,PreComm_Task,None,
34,Stable,56,75,53,78,19,19,3,5.6683489520219155,False,True,False,0,0,0,0,0.7000000000000001,0,False,False,0,False,False,False,8.068628066015663,True,False,False,78,1178,22112021,PreComm_Task,None,
35,Stable,38,25,35,28,16,13,-3,6.0361043800076,True,False,False,False,0,0,0.7,0.7000000000000001,True,False,False,16.505221863015322,False,True,False,0,False,False,False,35,1178,22112021,PreComm_Task,None,
36,Stable,64,63,61,66,4,1,-3,5.7836414109915495,False,True,False,0,0,0,0,0.8,0,False,False,0,False,False,False,7.933791873976588,True,False,False,66,1178,22112021,PreComm_Task,None,
37,Stable,28,15,27,16,15,13,-1,5.800525256985566,True,False,False,True,0.5946654969884548,14.700115610001376,0.3,0.8,False,True,False,0,False,False,False,0,False,False,False,27,1178,22112021,PreComm_Task,None,
38,Stable,43,56,40,59,13,13,3,6.029289786005393,False,True,False,0,0,0,0,0.7000000000000001,0,False,False,0,False,False,False,8.327561771002365,True,False,False,59,1178,22112021,PreComm_Task,None,
39,Stable,28,21,34,15,6,7,6,6.294736906012986,True,False,False,True,0.6209820959775243,15.846800724015338,0.9,0.7000000000000001,False,True,False,0,False,False,False,0,False,False,False,34,1178,22112021,PreComm_Task,None,
40,Stable,59,58,65,52,0,1,6,5.560144115006551,False,True,False,0,0,0,0,0.6000000000000001,0,False,False,0,False,False,False,7.259238797007129,True,False,False,52,1178,22112021,PreComm_Task,None,
41,Stable,12,25,11,26,14,13,1,5.761041598016163,True,False,False,False,0,0,0.8,0.6000000000000001,True,False,False,16.22280171600869,False,False,True,0,False,False,False,26,1178,22112021,PreComm_Task,None,
42,Stable,31,12,30,13,21,19,-1,5.862253816012526,False,True,False,0,0,0,0,0.7000000000000001,0,False,False,0,False,False,False,8.312244077998912,False,True,False,30,1178,22112021,PreComm_Task,None,
43,Stable,24,11,18,17,17,13,-6,5.518994490994373,True,False,False,True,0.6170658030023333,14.919855710002594,0.8,0.7000000000000001,False,True,False,0,False,False,False,0,False,False,False,18,1178,22112021,PreComm_Task,None,
44,Stable,49,56,46,59,7,7,3,5.943381388002308,False,True,False,0,0,0,0,0.6000000000000001,0,False,False,0,False,False,False,7.64626205098466,False,True,False,46,1178,22112021,PreComm_Task,None,
45,Stable,53,34,59,28,18,19,6,5.885209286003374,False,True,False,0,0,0,0,0.6000000000000001,0,False,False,0,False,False,False,8.234447861992521,False,True,False,59,1178,22112021,PreComm_Task,None,
46,Stable,20,27,26,21,11,7,-6,5.9223583359853365,True,False,False,False,0,0,0.9,0.6000000000000001,True,False,False,16.486461053980747,False,False,True,0,False,False,False,21,1178,22112021,PreComm_Task,None,
47,Stable,37,50,31,56,12,13,6,5.527645049995044,False,True,False,0,0,0,0,0.7000000000000001,0,False,False,0,False,False,False,7.876890360988909,True,False,False,56,1178,22112021,PreComm_Task,None,
48,Stable,57,38,54,41,22,19,-3,5.305253493017517,False,True,False,0,0,0,0,0.7000000000000001,0,False,False,0,False,False,False,7.604985698999371,False,True,False,54,1178,22112021,PreComm_Task,None,
49,Stable,72,71,75,68,1,1,3,8.551251558004878,False,True,False,0,0,0,0,0.7000000000000001,0,False,False,0,False,False,False,10.851962765009375,True,False,False,68,1178,22112021,PreComm_Task,None,
50,Stable,60,41,54,47,23,19,-6,5.851349594973726,False,True,False,0,0,0,0,0.7000000000000001,0,False,False,0,False,False,False,8.300122848973842,False,True,False,54,1178,22112021,PreComm_Task,None,
51,Stable,23,30,17,36,6,7,6,5.558229619986378,True,False,False,True,0.5859699450084008,15.158744715998182,1.0,0.7000000000000001,False,False,True,0,False,False,False,0,False,False,False,36,1178,22112021,PreComm_Task,None,
52,Stable,70,89,64,95,18,19,6,5.667464151018066,False,True,False,0,0,0,0,0.6000000000000001,0,False,False,0,False,False,False,7.967177848011488,True,False,False,95,1178,22112021,PreComm_Task,None,
53,Stable,35,16,34,17,21,19,-1,5.792470115004107,False,True,False,0,0,0,0,0.6000000000000001,0,False,False,0,False,False,False,8.191564189997735,False,True,False,34,1178,22112021,PreComm_Task,None,
54,Stable,29,16,35,10,12,13,6,6.400003535003634,False,True,False,0,0,0,0,0.6000000000000001,0,False,False,0,False,False,False,8.599475090013584,False,True,False,35,1178,22112021,PreComm_Task,None,
55,Stable,31,18,25,24,17,13,-6,5.871750610007439,True,False,False,False,0,0,0.9,0.6000000000000001,True,False,False,16.44022085602046,False,False,True,0,False,False,False,24,1178,22112021,PreComm_Task,None,
56,Stable,40,39,41,38,2,1,1,5.917993064998882,False,True,False,0,0,0,0,0.7000000000000001,0,False,False,0,False,False,False,8.317663366993656,True,False,False,38,1178,22112021,PreComm_Task,None,
57,Stable,90,71,93,68,19,19,3,5.957914767001057,False,True,False,0,0,0,0,0.7000000000000001,0,False,False,0,False,False,False,8.4060936490132,False,True,False,93,1178,22112021,PreComm_Task,None,
58,Stable,38,45,44,39,11,7,-6,6.342216528020799,False,True,False,0,0,0,0,0.7000000000000001,0,False,False,0,False,False,False,8.641147290007211,True,False,False,39,1178,22112021,PreComm_Task,None,
59,Stable,74,87,77,84,16,13,-3,5.8036622460058425,False,True,False,0,0,0,0,0.7000000000000001,0,False,False,0,False,False,False,8.152280887006782,True,False,False,84,1178,22112021,PreComm_Task,None,
60,Stable,59,78,62,75,22,19,-3,5.545110917009879,False,True,False,0,0,0,0,0.7000000000000001,0,False,False,0,False,False,False,7.745580309012439,True,False,False,75,1178,22112021,PreComm_Task,None,
61,Stable,71,64,72,63,8,7,1,5.953122858016286,False,True,False,0,0,0,0,0.7000000000000001,0,False,False,0,False,False,False,9.053374388022348,False,True,False,72,1178,22112021,PreComm_Task,None,
62,Stable,57,56,63,50,0,1,6,6.286432276014239,True,False,False,False,0,0,1.0,0.7000000000000001,True,False,False,17.101321238005767,False,True,False,0,False,False,False,63,1178,22112021,PreComm_Task,None,
63,Stable,69,56,72,53,13,13,3,5.6816517309925985,False,True,False,0,0,0,0,0.8,0,False,False,0,False,False,False,8.231179942988092,False,True,False,72,1178,22112021,PreComm_Task,None,
64,Stable,45,46,48,43,4,1,-3,6.044087023998145,True,False,False,True,0.5852662769902963,15.645734290010296,1.0,0.8,False,True,False,0,False,False,False,0,False,False,False,48,1178,22112021,PreComm_Task,None,
65,Stable,50,37,49,38,15,13,-1,5.913490431004902,False,True,False,0,0,0,0,0.7000000000000001,0,False,False,0,False,False,False,8.163378755998565,False,True,False,49,1178,22112021,PreComm_Task,None,
66,Stable,6,13,9,10,10,7,-3,6.061674469005084,True,False,False,False,0,0,0.4,0.7000000000000001,True,False,False,16.219531526992796,False,False,True,0,False,False,False,10,1178,22112021,PreComm_Task,None,
67,Stable,27,28,33,22,5,1,-6,6.3865000549994875,False,True,False,0,0,0,0,0.8,0,False,False,0,False,False,False,8.58610255800886,False,True,False,33,1178,22112021,PreComm_Task,None,
68,Stable,10,11,11,10,3,1,-1,6.476518267998472,True,False,False,True,0.6361441290064249,15.427090440003667,0.3,0.8,False,True,False,0,False,False,False,0,False,False,False,11,1178,22112021,PreComm_Task,None,
69,Stable,61,54,60,55,9,7,-1,5.851934630016331,False,True,False,0,0,0,0,0.7000000000000001,0,False,False,0,False,False,False,7.999552463996224,False,True,False,60,1178,22112021,PreComm_Task,None,
70,Stable,61,80,60,81,20,19,1,5.749633951985743,False,True,False,0,0,0,0,0.7000000000000001,0,False,False,0,False,False,False,8.198687834985321,True,False,False,81,1178,22112021,PreComm_Task,None,
71,Stable,32,39,29,42,7,7,3,6.684758877003333,False,True,False,0,0,0,0,0.7000000000000001,0,False,False,0,False,False,False,8.88481735700043,True,False,False,42,1178,22112021,PreComm_Task,None,
72,Stable,40,27,41,26,14,13,1,5.847754766989965,False,True,False,0,0,0,0,0.7000000000000001,0,False,False,0,False,False,False,8.446582208998734,False,True,False,41,1178,22112021,PreComm_Task,None,
73,Stable,22,15,28,9,6,7,6,6.124916769011179,True,False,False,False,0,0,0.4,0.7000000000000001,True,False,False,16.271379098005127,False,False,True,0,False,False,False,9,1178,22112021,PreComm_Task,None,
74,Stable,36,43,39,40,10,7,-3,5.753397455002414,False,True,False,0,0,0,0,0.8,0,False,False,0,False,False,False,10.343230237980606,False,False,True,0,1178,22112021,PreComm_Task,None,
75,Stable,51,38,45,44,17,13,-6,6.282747142016888,False,True,False,0,0,0,0,0.8,0,False,False,0,False,False,False,8.931718689011177,False,True,False,45,1178,22112021,PreComm_Task,None,
76,Stable,36,55,37,54,21,19,-1,6.2343380649981555,False,True,False,0,0,0,0,0.8,0,False,False,0,False,False,False,10.233559831016464,True,False,False,54,1178,22112021,PreComm_Task,None,
77,Stable,35,22,38,19,13,13,3,6.257257845980348,False,True,False,0,0,0,0,0.8,0,False,False,0,False,False,False,9.056458767998265,False,True,False,38,1178,22112021,PreComm_Task,None,
78,Stable,44,57,47,54,16,13,-3,6.224425328022335,False,True,False,0,0,0,0,0.8,0,False,False,0,False,False,False,8.66697476900299,True,False,False,54,1178,22112021,PreComm_Task,None,
79,Stable,23,10,29,4,12,13,6,5.703069320996292,True,False,False,True,0.6149026369967032,14.553481979004573,0.2,0.8,False,True,False,0,False,False,False,0,False,False,False,29,1178,22112021,PreComm_Task,None,
80,Stable,55,36,52,39,22,19,-3,5.571732301003067,False,True,False,0,0,0,0,0.7000000000000001,0,False,False,0,False,False,False,7.972201655997196,False,True,False,52,1178,22112021,PreComm_Task,None,
81,Stable,22,21,16,27,5,1,-6,5.822885266999947,True,False,False,False,0,0,0.8,0.7000000000000001,True,False,False,16.405275122000603,False,False,True,0,False,False,False,27,1178,22112021,PreComm_Task,None,
82,Stable,93,74,94,73,20,19,1,5.401407886995003,False,True,False,0,0,0,0,0.8,0,False,False,0,False,False,False,7.351849279977614,False,True,False,94,1178,22112021,PreComm_Task,None,
83,Stable,28,47,22,53,18,19,6,6.420585278014187,False,True,False,0,0,0,0,0.8,0,False,False,0,False,False,False,8.673014618019806,True,False,False,53,1178,22112021,PreComm_Task,None,
84,Stable,66,79,67,78,15,13,-1,5.5529582670133095,False,True,False,0,0,0,0,0.8,0,False,False,0,False,False,False,7.802638875989942,True,False,False,78,1178,22112021,PreComm_Task,None,
85,Stable,22,15,21,16,9,7,-1,5.64259853499243,True,False,False,True,0.5996995560126379,14.492773684003623,0.2,0.8,False,True,False,0,False,False,False,0,False,False,False,21,1178,22112021,PreComm_Task,None,
86,Stable,35,28,36,27,8,7,1,5.622450816998025,False,True,False,0,0,0,0,0.7000000000000001,0,False,False,0,False,False,False,8.117062531004194,False,True,False,36,1178,22112021,PreComm_Task,None,
87,Stable,14,15,13,16,2,1,1,5.666659451992018,True,False,False,True,0.6211802109901328,14.569248863001121,0.3,0.7000000000000001,False,False,True,0,False,False,False,0,False,False,False,16,1178,22112021,PreComm_Task,None,
88,Stable,61,62,64,59,4,1,-3,5.666404324991163,False,True,False,0,0,0,0,0.6000000000000001,0,False,False,0,False,False,False,7.7155669089988805,False,True,False,64,1178,22112021,PreComm_Task,None,
89,Stable,17,16,20,13,1,1,3,5.564028269000119,True,False,False,False,0,0,0.8,0.6000000000000001,True,False,False,16.01216872400255,False,True,False,0,False,False,False,20,1178,22112021,PreComm_Task,None,
90,Stable,63,62,69,56,0,1,6,5.952797105011996,False,True,False,0,0,0,0,0.7000000000000001,0,False,False,0,False,False,False,8.501278771000216,True,False,False,56,1178,22112021,PreComm_Task,None,
91,Stable,15,14,14,15,3,1,-1,5.840469568007393,True,False,False,True,0.5930377310141921,14.940087361988844,0.5,0.7000000000000001,False,False,True,0,False,False,False,0,False,False,False,15,1178,22112021,PreComm_Task,None,
92,Stable,68,55,69,54,14,13,1,5.554520754987607,False,True,False,0,0,0,0,0.6000000000000001,0,False,False,0,False,False,False,7.7540055489807855,False,True,False,69,1178,22112021,PreComm_Task,None,
93,Stable,32,13,26,19,23,19,-6,6.025948032998713,False,True,False,0,0,0,0,0.6000000000000001,0,False,False,0,False,False,False,8.473501636995934,False,True,False,26,1178,22112021,PreComm_Task,None,
94,Stable,25,32,31,26,11,7,-6,6.650948360009352,True,False,False,True,0.5747700049832929,15.549411876010709,0.3,0.6000000000000001,False,True,False,0,False,False,False,0,False,False,False,31,1178,22112021,PreComm_Task,None,
95,Stable,35,54,32,57,19,19,3,5.926114735018928,False,True,False,0,0,0,0,0.5000000000000001,0,False,False,0,False,False,False,8.122655020008096,True,False,False,57,1178,22112021,PreComm_Task,None,
96,Stable,78,71,81,68,7,7,3,5.77923993600416,False,True,False,0,0,0,0,0.5000000000000001,0,False,False,0,False,False,False,7.930001122993417,False,True,False,81,1178,22112021,PreComm_Task,None,
