TrialNumber,Condition,OptionA,OptionB,EndA,EndB,combination,difference,change,Choice_RT,Choice_Wait,Choice_Commit,Choice_Miss,Press_hit,Play_RT,RT_trialClock_play,ITI_play,Square_timing,Press_miss,Play_win_A,Play_win_B,Late_RT,Play_lost,Play_lost_chosenA,Play_lost_chosenB,Precomm_RT,Precomm_B,Precomm_A,Precomm_miss,Earnings,participant,date,expName,frameRate,
1,Stable,24,31,25,30,9,7,-1,5.311678785999987,False,True,False,0,0,0,0,0.8,0,False,False,0,False,False,False,7.9966967299999965,True,False,False,30,1188,03122021,PreComm_Task,None,
2,Stable,11,18,14,15,10,7,-3,5.1388040550000085,False,True,False,0,0,0,0,0.8,0,False,False,0,False,False,False,7.689085406999993,True,False,False,15,1188,03122021,PreComm_Task,None,
3,Stable,68,61,69,60,8,7,1,5.24550216999998,False,True,False,0,0,0,0,0.8,0,False,False,0,False,False,False,7.845662277000002,False,True,False,69,1188,03122021,PreComm_Task,None,
4,Stable,41,40,47,34,0,1,6,5.172968077000007,False,True,False,0,0,0,0,0.8,0,False,False,0,False,False,False,7.82382322700002,False,True,False,47,1188,03122021,PreComm_Task,None,
5,Stable,68,61,74,55,6,7,6,5.062046038999995,False,True,False,0,0,0,0,0.8,0,False,False,0,False,False,False,7.562699514999991,False,True,False,74,1188,03122021,PreComm_Task,None,
6,Stable,49,42,43,48,11,7,-6,5.215260133000015,False,True,False,0,0,0,0,0.8,0,False,False,0,False,False,False,7.765263037000011,False,True,False,43,1188,03122021,PreComm_Task,None,
7,Stable,69,70,66,73,1,1,3,5.223119630000014,False,True,False,0,0,0,0,0.8,0,False,False,0,False,False,False,7.622442769000003,True,False,False,73,1188,03122021,PreComm_Task,None,
8,Stable,50,51,51,50,3,1,-1,5.139873573999978,False,True,False,0,0,0,0,0.8,0,False,False,0,False,False,False,7.791581294999958,True,False,False,50,1188,03122021,PreComm_Task,None,
9,Stable,76,69,79,66,7,7,3,5.2866001470000015,False,True,False,0,0,0,0,0.8,0,False,False,0,False,False,False,7.786351293999985,False,True,False,79,1188,03122021,PreComm_Task,None,
10,Stable,88,69,94,63,18,19,6,5.16493176299997,False,True,False,0,0,0,0,0.8,0,False,False,0,False,False,False,7.663400061999994,False,True,False,94,1188,03122021,PreComm_Task,None,
11,Stable,27,46,28,45,21,19,-1,5.378604195000037,False,True,False,0,0,0,0,0.8,0,False,False,0,False,False,False,7.62695542900002,True,False,False,45,1188,03122021,PreComm_Task,None,
12,Stable,64,77,67,74,16,13,-3,5.5486260189999825,False,True,False,0,0,0,0,0.8,0,False,False,0,False,False,False,7.948442074000013,True,False,False,74,1188,03122021,PreComm_Task,None,
13,Stable,54,73,60,67,23,19,-6,5.094559844000003,False,True,False,0,0,0,0,0.8,0,False,False,0,False,False,False,7.4440500459999726,True,False,False,67,1188,03122021,PreComm_Task,None,
14,Stable,58,39,55,42,22,19,-3,5.144096341000022,False,True,False,0,0,0,0,0.8,0,False,False,0,False,False,False,7.742010262999997,False,True,False,55,1188,03122021,PreComm_Task,None,
15,Stable,59,46,58,47,15,13,-1,5.469136552000009,False,True,False,0,0,0,0,0.8,0,False,False,0,False,False,False,8.01710141000001,False,True,False,58,1188,03122021,PreComm_Task,None,
16,Stable,13,14,19,8,5,1,-6,6.7670340170000145,False,True,False,0,0,0,0,0.8,0,False,False,0,False,False,False,9.21527327299998,True,False,False,8,1188,03122021,PreComm_Task,None,
17,Stable,15,28,14,29,14,13,1,5.248469931999978,False,True,False,0,0,0,0,0.8,0,False,False,0,False,False,False,7.746520581000027,True,False,False,29,1188,03122021,PreComm_Task,None,
18,Stable,43,44,42,45,2,1,1,5.397074096999972,False,True,False,0,0,0,0,0.8,0,False,False,0,False,False,False,7.745388186000014,True,False,False,45,1188,03122021,PreComm_Task,None,
19,Stable,75,56,76,55,20,19,1,5.0455016700000215,False,True,False,0,0,0,0,0.8,0,False,False,0,False,False,False,7.396670088999997,False,True,False,76,1188,03122021,PreComm_Task,None,
20,Stable,55,36,58,33,19,19,3,5.212344973000029,False,True,False,0,0,0,0,0.8,0,False,False,0,False,False,False,7.8610011040000245,False,True,False,58,1188,03122021,PreComm_Task,None,
21,Stable,36,23,42,17,12,13,6,5.37484901900001,True,False,False,False,0,0,0.2,0.8,True,False,False,15.306780752999998,False,False,True,0,False,False,False,17,1188,03122021,PreComm_Task,None,
22,Stable,49,48,46,51,4,1,-3,5.036887632000003,False,True,False,0,0,0,0,0.9,0,False,False,0,False,False,False,7.736544839999965,False,True,False,46,1188,03122021,PreComm_Task,None,
23,Stable,63,76,60,79,13,13,3,5.428136101999996,False,True,False,0,0,0,0,0.9,0,False,False,0,False,False,False,8.077727804999995,True,False,False,79,1188,03122021,PreComm_Task,None,
24,Stable,32,19,26,25,17,13,-6,6.384494824000001,False,True,False,0,0,0,0,0.9,0,False,False,0,False,False,False,8.685449118999998,False,True,False,26,1188,03122021,PreComm_Task,None,
25,Stable,58,57,52,63,5,1,-6,5.2681614450000325,False,True,False,0,0,0,0,0.9,0,False,False,0,False,False,False,7.818197928000018,False,True,False,52,1188,03122021,PreComm_Task,None,
26,Stable,22,21,25,18,1,1,3,5.367348022999977,False,True,False,0,0,0,0,0.9,0,False,False,0,False,False,False,7.9151847710000425,False,True,False,25,1188,03122021,PreComm_Task,None,
27,Stable,55,74,52,77,19,19,3,5.415154363000056,False,True,False,0,0,0,0,0.9,0,False,False,0,False,False,False,7.817087850999997,True,False,False,77,1188,03122021,PreComm_Task,None,
28,Stable,59,46,53,52,17,13,-6,5.287082818000044,False,True,False,0,0,0,0,0.9,0,False,False,0,False,False,False,7.7856779159999405,False,True,False,53,1188,03122021,PreComm_Task,None,
29,Stable,14,27,13,28,14,13,1,5.374750207000034,False,True,False,0,0,0,0,0.9,0,False,False,0,False,False,False,7.8264120750000075,True,False,False,28,1188,03122021,PreComm_Task,None,
30,Stable,8,9,11,6,4,1,-3,5.545256812999924,False,True,False,0,0,0,0,0.9,0,False,False,0,False,False,False,7.896525830999963,True,False,False,6,1188,03122021,PreComm_Task,None,
31,Stable,48,55,45,58,7,7,3,5.3522083690000954,False,True,False,0,0,0,0,0.9,0,False,False,0,False,False,False,7.5022655690000875,True,False,False,58,1188,03122021,PreComm_Task,None,
32,Stable,75,62,72,65,16,13,-3,5.192067688000066,False,True,False,0,0,0,0,0.9,0,False,False,0,False,False,False,7.342037403000063,False,True,False,72,1188,03122021,PreComm_Task,None,
33,Stable,19,32,13,38,12,13,6,6.023909144000072,False,True,False,0,0,0,0,0.9,0,False,False,0,False,False,False,8.723992780000003,True,False,False,38,1188,03122021,PreComm_Task,None,
34,Stable,57,58,51,64,0,1,6,5.3495339720000175,False,True,False,0,0,0,0,0.9,0,False,False,0,False,False,False,7.898985544000084,True,False,False,64,1188,03122021,PreComm_Task,None,
35,Stable,18,37,12,43,18,19,6,5.297468544000026,False,True,False,0,0,0,0,0.9,0,False,False,0,False,False,False,8.49724430699996,True,False,False,43,1188,03122021,PreComm_Task,None,
36,Stable,42,61,43,60,21,19,-1,4.9964540099999795,False,True,False,0,0,0,0,0.9,0,False,False,0,False,False,False,7.196436569999946,True,False,False,60,1188,03122021,PreComm_Task,None,
37,Stable,55,62,58,59,10,7,-3,5.838033354999993,False,True,False,0,0,0,0,0.9,0,False,False,0,False,False,False,8.138012690999972,True,False,False,59,1188,03122021,PreComm_Task,None,
38,Stable,17,18,18,17,3,1,-1,4.885724234999998,False,True,False,0,0,0,0,0.9,0,False,False,0,False,False,False,6.985708645999921,True,False,False,17,1188,03122021,PreComm_Task,None,
39,Stable,50,43,44,49,11,7,-6,5.695131221999986,False,True,False,0,0,0,0,0.9,0,False,False,0,False,False,False,7.995473732999926,False,True,False,44,1188,03122021,PreComm_Task,None,
40,Stable,23,16,22,17,9,7,-1,4.929702743000007,False,True,False,0,0,0,0,0.9,0,False,False,0,False,False,False,7.07777894700007,False,True,False,22,1188,03122021,PreComm_Task,None,
41,Stable,65,46,62,49,22,19,-3,5.2755534379999744,False,True,False,0,0,0,0,0.9,0,False,False,0,False,False,False,7.626243227000032,False,True,False,62,1188,03122021,PreComm_Task,None,
42,Stable,34,27,35,26,8,7,1,5.318586481000011,False,True,False,0,0,0,0,0.9,0,False,False,0,False,False,False,7.767688452000016,False,True,False,35,1188,03122021,PreComm_Task,None,
43,Stable,45,52,39,58,6,7,6,5.3799649249999675,False,True,False,0,0,0,0,0.9,0,False,False,0,False,False,False,7.530090334999954,True,False,False,58,1188,03122021,PreComm_Task,None,
44,Stable,10,23,11,22,15,13,-1,5.79552800099998,False,True,False,0,0,0,0,0.9,0,False,False,0,False,False,False,7.996170000000006,True,False,False,22,1188,03122021,PreComm_Task,None,
45,Stable,45,26,46,25,20,19,1,5.634692741000094,False,True,False,0,0,0,0,0.9,0,False,False,0,False,False,False,8.0334603230001,False,True,False,46,1188,03122021,PreComm_Task,None,
46,Stable,16,17,15,18,2,1,1,5.51548130499998,False,True,False,0,0,0,0,0.9,0,False,False,0,False,False,False,7.7654644020000205,True,False,False,18,1188,03122021,PreComm_Task,None,
47,Stable,54,35,48,41,23,19,-6,5.201322179000044,False,True,False,0,0,0,0,0.9,0,False,False,0,False,False,False,8.002811313000052,False,True,False,48,1188,03122021,PreComm_Task,None,
48,Stable,22,9,25,6,13,13,3,5.7657759639999995,False,True,False,0,0,0,0,0.9,0,False,False,0,False,False,False,8.31440253900007,False,True,False,25,1188,03122021,PreComm_Task,None,
49,Stable,45,52,48,49,10,7,-3,10.57169068799999,False,True,False,0,0,0,0,0.9,0,False,False,0,False,False,False,13.271171982000055,True,False,False,49,1188,03122021,PreComm_Task,None,
50,Stable,53,54,47,60,0,1,6,5.445928858000002,False,True,False,0,0,0,0,0.9,0,False,False,0,False,False,False,8.04506587200001,True,False,False,60,1188,03122021,PreComm_Task,None,
51,Stable,46,39,45,40,9,7,-1,5.539586575000044,False,True,False,0,0,0,0,0.9,0,False,False,0,False,False,False,7.938397452999993,False,True,False,45,1188,03122021,PreComm_Task,None,
52,Stable,54,41,51,44,16,13,-3,5.7255433880000055,False,True,False,0,0,0,0,0.9,0,False,False,0,False,False,False,8.775704050000058,False,True,False,51,1188,03122021,PreComm_Task,None,
53,Stable,30,29,29,30,3,1,-1,5.390258340999935,False,True,False,0,0,0,0,0.9,0,False,False,0,False,False,False,7.789860589,False,True,False,29,1188,03122021,PreComm_Task,None,
54,Stable,38,37,41,34,1,1,3,5.117181179999989,False,True,False,0,0,0,0,0.9,0,False,False,0,False,False,False,7.566876322999974,False,True,False,41,1188,03122021,PreComm_Task,None,
55,Stable,54,73,48,79,18,19,6,5.172585906999984,False,True,False,0,0,0,0,0.9,0,False,False,0,False,False,False,7.673759765999989,True,False,False,79,1188,03122021,PreComm_Task,None,
56,Stable,85,72,84,73,15,13,-1,5.58830432600007,False,True,False,0,0,0,0,0.9,0,False,False,0,False,False,False,7.836972340000102,False,True,False,84,1188,03122021,PreComm_Task,None,
57,Stable,33,26,34,25,8,7,1,5.667748234999976,False,True,False,0,0,0,0,0.9,0,False,False,0,False,False,False,7.866604970000026,False,True,False,34,1188,03122021,PreComm_Task,None,
58,Stable,28,29,34,23,5,1,-6,4.913591945999997,False,True,False,0,0,0,0,0.9,0,False,False,0,False,False,False,7.11345431299992,True,False,False,23,1188,03122021,PreComm_Task,None,
59,Stable,50,63,44,69,12,13,6,5.141833879000046,False,True,False,0,0,0,0,0.9,0,False,False,0,False,False,False,7.39092459699998,True,False,False,69,1188,03122021,PreComm_Task,None,
60,Stable,80,73,83,70,7,7,3,5.239172812999982,False,True,False,0,0,0,0,0.9,0,False,False,0,False,False,False,7.490355902000033,False,True,False,83,1188,03122021,PreComm_Task,None,
61,Stable,42,61,41,62,20,19,1,5.28406028500001,False,True,False,0,0,0,0,0.9,0,False,False,0,False,False,False,7.532198235999999,True,False,False,62,1188,03122021,PreComm_Task,None,
62,Stable,40,21,34,27,23,19,-6,5.090475496999943,False,True,False,0,0,0,0,0.9,0,False,False,0,False,False,False,7.389958357999944,False,True,False,34,1188,03122021,PreComm_Task,None,
63,Stable,48,67,45,70,19,19,3,5.876749568999912,False,True,False,0,0,0,0,0.9,0,False,False,0,False,False,False,8.325187729999925,True,False,False,70,1188,03122021,PreComm_Task,None,
64,Stable,10,29,13,26,22,19,-3,5.592163856999946,False,True,False,0,0,0,0,0.9,0,False,False,0,False,False,False,8.690818908999972,True,False,False,26,1188,03122021,PreComm_Task,None,
65,Stable,40,27,43,24,13,13,3,5.298181882999984,False,True,False,0,0,0,0,0.9,0,False,False,0,False,False,False,7.948759764999977,False,True,False,43,1188,03122021,PreComm_Task,None,
66,Stable,54,35,53,36,21,19,-1,6.317426286999989,False,True,False,0,0,0,0,0.9,0,False,False,0,False,False,False,9.216983528000014,False,True,False,53,1188,03122021,PreComm_Task,None,
67,Stable,70,77,64,83,6,7,6,5.616853408999873,False,True,False,0,0,0,0,0.9,0,False,False,0,False,False,False,8.017113727000037,True,False,False,83,1188,03122021,PreComm_Task,None,
68,Stable,71,58,65,64,17,13,-6,5.146940357000176,False,True,False,0,0,0,0,0.9,0,False,False,0,False,False,False,7.8483253570000215,False,True,False,65,1188,03122021,PreComm_Task,None,
69,Stable,25,18,19,24,11,7,-6,5.170644007999954,False,True,False,0,0,0,0,0.9,0,False,False,0,False,False,False,7.569947949000152,False,True,False,19,1188,03122021,PreComm_Task,None,
70,Stable,8,21,7,22,14,13,1,5.268484876999992,False,True,False,0,0,0,0,0.9,0,False,False,0,False,False,False,7.818253311000035,True,False,False,22,1188,03122021,PreComm_Task,None,
71,Stable,14,13,15,12,2,1,1,5.046184481999944,False,True,False,0,0,0,0,0.9,0,False,False,0,False,False,False,7.345844940999996,False,True,False,15,1188,03122021,PreComm_Task,None,
72,Stable,50,49,47,52,4,1,-3,5.180330699000024,False,True,False,0,0,0,0,0.9,0,False,False,0,False,False,False,7.377980146000027,False,True,False,47,1188,03122021,PreComm_Task,None,
73,Stable,48,47,42,53,5,1,-6,5.1736746840001615,False,True,False,0,0,0,0,0.9,0,False,False,0,False,False,False,7.724006161000034,False,True,False,42,1188,03122021,PreComm_Task,None,
74,Stable,67,48,70,45,19,19,3,4.926081760999978,False,True,False,0,0,0,0,0.9,0,False,False,0,False,False,False,7.5254738290000205,False,True,False,70,1188,03122021,PreComm_Task,None,
75,Stable,54,73,53,74,20,19,1,5.127949279999939,False,True,False,0,0,0,0,0.9,0,False,False,0,False,False,False,7.627848759000017,True,False,False,74,1188,03122021,PreComm_Task,None,
76,Stable,71,64,68,67,10,7,-3,5.1771747459999915,False,True,False,0,0,0,0,0.9,0,False,False,0,False,False,False,7.2746062680000705,False,True,False,68,1188,03122021,PreComm_Task,None,
77,Stable,70,51,67,54,22,19,-3,5.067506786999957,False,True,False,0,0,0,0,0.9,0,False,False,0,False,False,False,7.668369255000016,False,True,False,67,1188,03122021,PreComm_Task,None,
78,Stable,28,15,27,16,15,13,-1,5.323166252999954,False,True,False,0,0,0,0,0.9,0,False,False,0,False,False,False,7.519916579999972,False,True,False,27,1188,03122021,PreComm_Task,None,
79,Stable,52,53,55,50,4,1,-3,5.274328052999863,False,True,False,0,0,0,0,0.9,0,False,False,0,False,False,False,7.4221978440000385,True,False,False,50,1188,03122021,PreComm_Task,None,
80,Stable,12,11,13,10,2,1,1,5.094366715999968,False,True,False,0,0,0,0,0.9,0,False,False,0,False,False,False,7.292994187999966,False,True,False,13,1188,03122021,PreComm_Task,None,
81,Stable,20,39,21,38,21,19,-1,4.933641083000111,False,True,False,0,0,0,0,0.9,0,False,False,0,False,False,False,7.283001716999934,True,False,False,38,1188,03122021,PreComm_Task,None,
82,Stable,17,10,11,16,11,7,-6,5.142706259000079,False,True,False,0,0,0,0,0.9,0,False,False,0,False,False,False,7.642159965000019,False,True,False,11,1188,03122021,PreComm_Task,None,
83,Stable,72,71,78,65,0,1,6,5.070114658999955,False,True,False,0,0,0,0,0.9,0,False,False,0,False,False,False,7.37183694700002,False,True,False,78,1188,03122021,PreComm_Task,None,
84,Stable,38,31,41,28,7,7,3,5.778033673999971,False,True,False,0,0,0,0,0.9,0,False,False,0,False,False,False,8.578037656999868,False,True,False,41,1188,03122021,PreComm_Task,None,
85,Stable,55,68,58,65,16,13,-3,5.225236512000038,False,True,False,0,0,0,0,0.9,0,False,False,0,False,False,False,7.824993682000013,True,False,False,65,1188,03122021,PreComm_Task,None,
86,Stable,80,61,74,67,23,19,-6,5.141212449000022,False,True,False,0,0,0,0,0.9,0,False,False,0,False,False,False,7.34080726000002,False,True,False,74,1188,03122021,PreComm_Task,None,
87,Stable,10,9,13,6,1,1,3,5.172108381000044,False,True,False,0,0,0,0,0.9,0,False,False,0,False,False,False,7.421652594000079,False,True,False,13,1188,03122021,PreComm_Task,None,
88,Stable,54,67,48,73,12,13,6,8.19833038600018,False,False,True,0,0,0,0,0.9,0,False,False,0,False,False,False,0,False,True,False,0,1188,03122021,PreComm_Task,None,
89,Stable,14,21,13,22,8,7,1,5.22659948699993,False,True,False,0,0,0,0,0.9,0,False,False,0,False,False,False,6.9767224610000085,True,False,False,22,1188,03122021,PreComm_Task,None,
90,Stable,28,35,22,41,6,7,6,7.038539373999811,False,True,False,0,0,0,0,0.9,0,False,False,0,False,False,False,9.490027844999986,True,False,False,41,1188,03122021,PreComm_Task,None,
91,Stable,35,54,29,60,18,19,6,4.894898653000155,False,True,False,0,0,0,0,0.9,0,False,False,0,False,False,False,7.145148930000005,True,False,False,60,1188,03122021,PreComm_Task,None,
92,Stable,8,7,7,8,3,1,-1,4.944892921000019,False,True,False,0,0,0,0,0.9,0,False,False,0,False,False,False,7.096515192999959,False,True,False,7,1188,03122021,PreComm_Task,None,
93,Stable,50,63,47,66,13,13,3,5.122648415000185,False,True,False,0,0,0,0,0.9,0,False,False,0,False,False,False,7.473252830000092,True,False,False,66,1188,03122021,PreComm_Task,None,
94,Stable,38,31,37,32,9,7,-1,5.294708560999879,False,True,False,0,0,0,0,0.9,0,False,False,0,False,False,False,7.34498804299983,False,True,False,37,1188,03122021,PreComm_Task,None,
95,Stable,67,80,66,81,14,13,1,5.173979661999965,False,True,False,0,0,0,0,0.9,0,False,False,0,False,False,False,7.323573699999997,True,False,False,81,1188,03122021,PreComm_Task,None,
96,Stable,25,38,31,32,17,13,-6,4.997434803999795,False,True,False,0,0,0,0,0.9,0,False,False,0,False,False,False,7.297617701999798,True,False,False,32,1188,03122021,PreComm_Task,None,
