TrialNumber,Condition,OptionA,OptionB,EndA,EndB,combination,difference,change,Choice_RT,Choice_Wait,Choice_Commit,Choice_Miss,Press_hit,Play_RT,RT_trialClock_play,ITI_play,Square_timing,Press_miss,Play_win_A,Play_win_B,Late_RT,Play_lost,Play_lost_chosenA,Play_lost_chosenB,Precomm_RT,Precomm_B,Precomm_A,Precomm_miss,Earnings,participant,date,expName,frameRate,
1,Stable,56,57,59,54,4,1,-3,8.00810997499866,False,True,False,0,0,0,0,0.8,0,False,False,0,False,False,False,10.496292144001927,True,False,False,54,1128,16092021,PreComm_Task,None,
2,Stable,64,51,61,54,16,13,-3,7.261742738999601,True,False,False,True,0.5962955450013396,16.463081049998436,0.6,0.8,False,True,False,0,False,False,False,0,False,False,False,61,1128,16092021,PreComm_Task,None,
3,Stable,76,69,73,72,10,7,-3,6.41116240500196,False,True,False,0,0,0,0,0.7000000000000001,0,False,False,0,False,False,False,8.961212185000477,False,True,False,73,1128,16092021,PreComm_Task,None,
4,Stable,44,45,43,46,2,1,1,6.786318594000477,True,False,False,True,0.5957936740014702,16.383572496000852,1.0,0.7000000000000001,False,False,True,0,False,False,False,0,False,False,False,46,1128,16092021,PreComm_Task,None,
5,Stable,11,24,12,23,15,13,-1,7.014395436999621,True,False,False,False,0,0,0.2,0.6000000000000001,True,False,False,16.83387255100024,False,False,True,0,False,False,False,23,1128,16092021,PreComm_Task,None,
6,Stable,22,15,28,9,6,7,6,6.219212567000795,True,False,False,True,0.6028583330007677,15.81898381800056,1.0,0.7000000000000001,False,True,False,0,False,False,False,0,False,False,False,28,1128,16092021,PreComm_Task,None,
7,Stable,52,71,55,68,22,19,-3,6.810018186999514,False,True,False,0,0,0,0,0.6000000000000001,0,False,False,0,False,False,False,9.009379891002027,True,False,False,68,1128,16092021,PreComm_Task,None,
8,Stable,31,38,32,37,9,7,-1,7.133064521996857,True,False,False,False,0,0,0.5,0.6000000000000001,True,False,False,17.314077130999067,False,False,True,0,False,False,False,37,1128,16092021,PreComm_Task,None,
9,Stable,34,21,40,15,12,13,6,6.637504270001955,False,True,False,0,0,0,0,0.7000000000000001,0,False,False,0,False,False,False,9.088365923998936,False,True,False,40,1128,16092021,PreComm_Task,None,
10,Stable,58,71,55,74,13,13,3,6.1205265589997,False,True,False,0,0,0,0,0.7000000000000001,0,False,False,0,False,False,False,8.670820908002497,True,False,False,74,1128,16092021,PreComm_Task,None,
11,Stable,45,26,51,20,18,19,6,6.8110596209990035,False,True,False,0,0,0,0,0.7000000000000001,0,False,False,0,False,False,False,9.657475784999406,False,True,False,51,1128,16092021,PreComm_Task,None,
12,Stable,59,40,62,37,19,19,3,6.91792355600046,False,True,False,0,0,0,0,0.7000000000000001,0,False,False,0,False,False,False,9.167373099000542,False,True,False,62,1128,16092021,PreComm_Task,None,
13,Stable,41,42,38,45,1,1,3,6.480037571000139,True,False,False,False,0,0,0.6,0.7000000000000001,True,False,False,16.84555067799738,False,True,False,0,False,False,False,38,1128,16092021,PreComm_Task,None,
14,Stable,28,21,22,27,11,7,-6,6.92294074000165,True,False,False,True,0.6006022429974109,16.32291216000158,0.8,0.8,False,False,True,0,False,False,False,0,False,False,False,27,1128,16092021,PreComm_Task,None,
15,Stable,31,30,37,24,0,1,6,6.86107182699925,True,False,False,True,0.6028362670003844,16.25984403899929,0.8,0.7000000000000001,False,True,False,0,False,False,False,0,False,False,False,37,1128,16092021,PreComm_Task,None,
16,Stable,39,58,40,57,21,19,-1,7.07905399000083,False,True,False,0,0,0,0,0.6000000000000001,0,False,False,0,False,False,False,9.578013988000748,True,False,False,57,1128,16092021,PreComm_Task,None,
17,Stable,54,41,55,40,14,13,1,6.858890240000619,False,True,False,0,0,0,0,0.6000000000000001,0,False,False,0,False,False,False,9.605660860997887,False,True,False,55,1128,16092021,PreComm_Task,None,
18,Stable,37,38,38,37,3,1,-1,6.788071636001405,True,False,False,False,0,0,0.3,0.6000000000000001,True,False,False,16.724885119998362,False,True,False,0,False,False,False,38,1128,16092021,PreComm_Task,None,
19,Stable,25,32,24,33,8,7,1,8.314386342000944,False,False,True,0,0,0,0,0.7000000000000001,0,False,False,0,False,False,False,0,False,False,False,0,1128,16092021,PreComm_Task,None,
20,Stable,21,40,20,41,20,19,1,6.418909203999647,False,True,False,0,0,0,0,0.7000000000000001,0,False,False,0,False,False,False,8.866252135998366,True,False,False,41,1128,16092021,PreComm_Task,None,
21,Stable,57,76,63,70,23,19,-6,6.408819251999375,False,True,False,0,0,0,0,0.7000000000000001,0,False,False,0,False,False,False,8.758184661997802,True,False,False,70,1128,16092021,PreComm_Task,None,
22,Stable,77,64,71,70,17,13,-6,6.844861879002565,False,True,False,0,0,0,0,0.7000000000000001,0,False,False,0,False,False,False,9.245382024000719,False,True,False,71,1128,16092021,PreComm_Task,None,
23,Stable,65,58,68,55,7,7,3,6.7408388949988876,False,True,False,0,0,0,0,0.7000000000000001,0,False,False,0,False,False,False,9.140427668000484,False,True,False,68,1128,16092021,PreComm_Task,None,
24,Stable,38,37,32,43,5,1,-6,6.542119887002627,True,False,False,True,0.6301561219988798,15.892677335999906,0.7,0.7000000000000001,False,False,True,0,False,False,False,0,False,False,False,43,1128,16092021,PreComm_Task,None,
25,Stable,24,11,18,17,17,13,-6,6.8725058370000625,False,True,False,0,0,0,0,0.6000000000000001,0,False,False,0,False,False,False,9.172503490000963,False,True,False,18,1128,16092021,PreComm_Task,None,
26,Stable,13,20,10,23,7,7,3,6.679850455999258,True,False,False,True,0.5948795889999019,16.330646203998185,1.0,0.6000000000000001,False,False,True,0,False,False,False,0,False,False,False,23,1128,16092021,PreComm_Task,None,
27,Stable,40,27,39,28,15,13,-1,6.123465062999458,False,True,False,0,0,0,0,0.5000000000000001,0,False,False,0,False,False,False,8.323395572999289,False,True,False,39,1128,16092021,PreComm_Task,None,
28,Stable,78,59,77,60,21,19,-1,6.138426402001642,False,True,False,0,0,0,0,0.5000000000000001,0,False,False,0,False,False,False,9.088739252001687,False,True,False,77,1128,16092021,PreComm_Task,None,
29,Stable,23,10,20,13,16,13,-3,6.604842729000666,False,True,False,0,0,0,0,0.5000000000000001,0,False,False,0,False,False,False,9.156448628000362,False,True,False,20,1128,16092021,PreComm_Task,None,
30,Stable,71,78,74,75,10,7,-3,6.58307574599894,False,True,False,0,0,0,0,0.5000000000000001,0,False,False,0,False,False,False,9.031925957002386,True,False,False,75,1128,16092021,PreComm_Task,None,
31,Stable,75,74,81,68,0,1,6,6.403893157999846,True,False,False,False,0,0,0.2,0.5000000000000001,True,False,False,16.17721208799776,False,True,False,0,False,False,False,81,1128,16092021,PreComm_Task,None,
32,Stable,45,44,48,41,1,1,3,6.376622084000701,True,False,False,False,0,0,0.4,0.6000000000000001,True,False,False,16.413905214998522,False,True,False,0,False,False,False,48,1128,16092021,PreComm_Task,None,
33,Stable,20,39,19,40,20,19,1,6.3657709600011,False,True,False,0,0,0,0,0.7000000000000001,0,False,False,0,False,False,False,8.96430293999947,True,False,False,40,1128,16092021,PreComm_Task,None,
34,Stable,18,17,15,20,4,1,-3,6.655809808999038,True,False,False,True,0.605130800002371,15.85601265600053,0.6,0.7000000000000001,False,False,False,16.97398275100204,False,True,False,0,False,False,False,15,1128,16092021,PreComm_Task,None,
35,Stable,7,14,8,13,9,7,-1,7.065784665999672,False,True,False,0,0,0,0,0.8,0,False,False,0,False,False,False,9.565082113000244,True,False,False,13,1128,16092021,PreComm_Task,None,
36,Stable,13,12,7,18,5,1,-6,6.161314126999059,True,False,False,True,0.6026141649999772,15.760662090997357,1.0,0.8,False,False,True,0,False,False,False,0,False,False,False,18,1128,16092021,PreComm_Task,None,
37,Stable,47,60,46,61,14,13,1,6.368555528999423,False,True,False,0,0,0,0,0.7000000000000001,0,False,False,0,False,False,False,8.768785315001878,True,False,False,61,1128,16092021,PreComm_Task,None,
38,Stable,39,58,42,55,22,19,-3,6.317743567000434,False,True,False,0,0,0,0,0.7000000000000001,0,False,False,0,False,False,False,8.966510509999353,True,False,False,55,1128,16092021,PreComm_Task,None,
39,Stable,52,65,46,71,12,13,6,6.198709347998374,False,True,False,0,0,0,0,0.7000000000000001,0,False,False,0,False,False,False,9.09816609200061,True,False,False,71,1128,16092021,PreComm_Task,None,
40,Stable,17,16,16,17,3,1,-1,6.412257542000589,True,False,False,True,0.6530838289982057,15.563893514001393,0.5,0.7000000000000001,False,False,True,0,False,False,False,0,False,False,False,17,1128,16092021,PreComm_Task,None,
41,Stable,34,35,33,36,2,1,1,6.415182373999414,True,False,False,False,0,0,0.2,0.6000000000000001,True,False,False,16.26239438399716,False,True,False,0,False,False,False,33,1128,16092021,PreComm_Task,None,
42,Stable,36,55,42,49,23,19,-6,6.304701257999113,False,True,False,0,0,0,0,0.7000000000000001,0,False,False,0,False,False,False,8.904120767001587,True,False,False,49,1128,16092021,PreComm_Task,None,
43,Stable,25,18,19,24,11,7,-6,6.485862539000664,False,True,False,0,0,0,0,0.7000000000000001,0,False,False,0,False,False,False,9.231506847001583,False,True,False,19,1128,16092021,PreComm_Task,None,
44,Stable,61,42,67,36,18,19,6,6.07368812599816,False,True,False,0,0,0,0,0.7000000000000001,0,False,False,0,False,False,False,8.322182152998721,False,True,False,67,1128,16092021,PreComm_Task,None,
45,Stable,51,38,54,35,13,13,3,6.529552666001109,False,True,False,0,0,0,0,0.7000000000000001,0,False,False,0,False,False,False,8.93349441099781,False,True,False,54,1128,16092021,PreComm_Task,None,
46,Stable,92,73,95,70,19,19,3,6.201200383999094,False,True,False,0,0,0,0,0.7000000000000001,0,False,False,0,False,False,False,8.60129487499944,False,True,False,95,1128,16092021,PreComm_Task,None,
47,Stable,50,43,56,37,6,7,6,6.338831813001889,True,False,False,True,0.5712824330003059,15.139786276002269,0.2,0.7000000000000001,False,True,False,0,False,False,False,0,False,False,False,56,1128,16092021,PreComm_Task,None,
48,Stable,40,33,41,32,8,7,1,6.40009541100153,True,False,False,True,0.5711240159980662,15.749897134999628,0.8,0.6000000000000001,False,True,False,0,False,False,False,0,False,False,False,41,1128,16092021,PreComm_Task,None,
49,Stable,45,64,46,63,21,19,-1,99.4300092730009,False,True,False,0,0,0,0,0.5000000000000001,0,False,False,0,False,False,False,102.12989857200228,True,False,False,63,1128,16092021,PreComm_Task,None,
50,Stable,24,37,23,38,14,13,1,6.55131584099945,False,True,False,0,0,0,0,0.5000000000000001,0,False,False,0,False,False,False,9.25157199900059,True,False,False,38,1128,16092021,PreComm_Task,None,
51,Stable,68,67,71,64,1,1,3,6.126209629001096,True,False,False,False,0,0,0.6,0.5000000000000001,True,False,False,16.266032514999097,False,False,True,0,False,False,False,64,1128,16092021,PreComm_Task,None,
52,Stable,42,43,45,40,4,1,-3,6.145518618002825,True,False,False,False,0,0,0.2,0.6000000000000001,True,False,False,16.003063686999667,False,True,False,0,False,False,False,45,1128,16092021,PreComm_Task,None,
53,Stable,33,14,36,11,19,19,3,6.6437188210002205,False,True,False,0,0,0,0,0.7000000000000001,0,False,False,0,False,False,False,9.692941641998914,False,True,False,36,1128,16092021,PreComm_Task,None,
54,Stable,69,56,72,53,13,13,3,6.184962485996948,False,True,False,0,0,0,0,0.7000000000000001,0,False,False,0,False,False,False,9.581719481997425,False,True,False,72,1128,16092021,PreComm_Task,None,
55,Stable,45,52,42,55,7,7,3,6.915791049003019,False,True,False,0,0,0,0,0.7000000000000001,0,False,False,0,False,False,False,9.614490017000207,True,False,False,55,1128,16092021,PreComm_Task,None,
56,Stable,59,46,53,52,17,13,-6,6.118825213998207,False,True,False,0,0,0,0,0.7000000000000001,0,False,False,0,False,False,False,8.718424572998629,True,False,False,52,1128,16092021,PreComm_Task,None,
57,Stable,62,43,59,46,22,19,-3,6.197011266001937,False,True,False,0,0,0,0,0.7000000000000001,0,False,False,0,False,False,False,8.845862894002494,False,True,False,59,1128,16092021,PreComm_Task,None,
58,Stable,67,60,66,61,9,7,-1,6.1622598779977125,False,True,False,0,0,0,0,0.7000000000000001,0,False,False,0,False,False,False,8.511541821997525,False,True,False,66,1128,16092021,PreComm_Task,None,
59,Stable,27,34,21,40,6,7,6,6.082824246997916,False,True,False,0,0,0,0,0.7000000000000001,0,False,False,0,False,False,False,8.477974847999576,True,False,False,40,1128,16092021,PreComm_Task,None,
60,Stable,59,78,65,72,23,19,-6,5.857052653998835,False,True,False,0,0,0,0,0.7000000000000001,0,False,False,0,False,False,False,8.356278504998045,True,False,False,72,1128,16092021,PreComm_Task,None,
61,Stable,67,74,70,71,10,7,-3,6.065186727999389,False,True,False,0,0,0,0,0.7000000000000001,0,False,False,0,False,False,False,8.364970525999524,True,False,False,71,1128,16092021,PreComm_Task,None,
62,Stable,86,67,87,66,20,19,1,6.024025241000345,False,True,False,0,0,0,0,0.7000000000000001,0,False,False,0,False,False,False,8.523847006999858,False,True,False,87,1128,16092021,PreComm_Task,None,
63,Stable,43,44,44,43,3,1,-1,6.523098589001165,True,False,False,True,0.5850330749999557,16.1222821880001,1.0,0.7000000000000001,False,True,False,0,False,False,False,0,False,False,False,44,1128,16092021,PreComm_Task,None,
64,Stable,56,63,55,64,8,7,1,5.868796562997886,False,True,False,0,0,0,0,0.6000000000000001,0,False,False,0,False,False,False,8.268465116998414,True,False,False,64,1128,16092021,PreComm_Task,None,
65,Stable,66,67,60,73,0,1,6,6.326191715997993,True,False,False,False,0,0,0.2,0.6000000000000001,True,False,False,16.186553675997857,False,False,True,0,False,False,False,73,1128,16092021,PreComm_Task,None,
66,Stable,16,29,17,28,15,13,-1,5.826451580000139,False,True,False,0,0,0,0,0.7000000000000001,0,False,False,0,False,False,False,7.676733100001002,True,False,False,28,1128,16092021,PreComm_Task,None,
67,Stable,20,21,26,15,5,1,-6,6.213757544002874,True,False,False,False,0,0,0.3,0.7000000000000001,True,False,False,16.247668015003,False,False,True,0,False,False,False,15,1128,16092021,PreComm_Task,None,
68,Stable,13,20,19,14,11,7,-6,6.334538245002477,False,True,False,0,0,0,0,0.8,0,False,False,0,False,False,False,8.784536936000222,True,False,False,14,1128,16092021,PreComm_Task,None,
69,Stable,12,11,13,10,2,1,1,6.054854575999343,True,False,False,True,0.6006340480016661,15.156190968998999,0.5,0.8,False,True,False,0,False,False,False,0,False,False,False,13,1128,16092021,PreComm_Task,None,
70,Stable,21,8,27,2,12,13,6,6.8629304349997255,True,False,False,True,0.29159297899968806,15.76245683900197,0.6,0.7000000000000001,False,True,False,0,False,False,False,0,False,False,False,27,1128,16092021,PreComm_Task,None,
71,Stable,11,24,14,21,16,13,-3,6.12024645800193,False,True,False,0,0,0,0,0.6000000000000001,0,False,False,0,False,False,False,8.469661396000447,True,False,False,21,1128,16092021,PreComm_Task,None,
72,Stable,60,79,54,85,18,19,6,5.963910228001623,False,True,False,0,0,0,0,0.6000000000000001,0,False,False,0,False,False,False,8.312842526000168,True,False,False,85,1128,16092021,PreComm_Task,None,
73,Stable,25,18,26,17,8,7,1,6.064351352997619,False,True,False,0,0,0,0,0.6000000000000001,0,False,False,0,False,False,False,8.563332454999909,False,True,False,26,1128,16092021,PreComm_Task,None,
74,Stable,36,29,30,35,11,7,-6,5.991656682999746,False,True,False,0,0,0,0,0.6000000000000001,0,False,False,0,False,False,False,8.441039681998518,False,True,False,30,1128,16092021,PreComm_Task,None,
75,Stable,30,43,33,40,16,13,-3,5.962258457999269,False,True,False,0,0,0,0,0.6000000000000001,0,False,False,0,False,False,False,8.361270060999232,True,False,False,40,1128,16092021,PreComm_Task,None,
76,Stable,19,18,22,15,1,1,3,6.099760451998009,True,False,False,False,0,0,0.8,0.6000000000000001,True,False,False,16.545085175999702,False,False,True,0,False,False,False,15,1128,16092021,PreComm_Task,None,
77,Stable,22,41,21,42,20,19,1,6.195875730998523,False,True,False,0,0,0,0,0.7000000000000001,0,False,False,0,False,False,False,9.14317713499986,True,False,False,42,1128,16092021,PreComm_Task,None,
78,Stable,79,60,82,57,19,19,3,5.8626083839990315,False,True,False,0,0,0,0,0.7000000000000001,0,False,False,0,False,False,False,8.91189137100082,False,True,False,82,1128,16092021,PreComm_Task,None,
79,Stable,34,47,35,46,15,13,-1,5.725589702000434,False,True,False,0,0,0,0,0.7000000000000001,0,False,False,0,False,False,False,8.276464514998224,True,False,False,46,1128,16092021,PreComm_Task,None,
80,Stable,69,70,72,67,4,1,-3,6.422751259000506,True,False,False,True,0.5910968210009742,15.423703234999266,0.4,0.7000000000000001,False,True,False,0,False,False,False,0,False,False,False,72,1128,16092021,PreComm_Task,None,
81,Stable,79,60,76,63,22,19,-3,6.763807690000249,False,True,False,0,0,0,0,0.6000000000000001,0,False,False,0,False,False,False,9.113214758999675,False,True,False,76,1128,16092021,PreComm_Task,None,
82,Stable,37,56,31,62,18,19,6,5.915165597998566,False,True,False,0,0,0,0,0.6000000000000001,0,False,False,0,False,False,False,8.162829310000234,True,False,False,62,1128,16092021,PreComm_Task,None,
83,Stable,54,53,55,52,2,1,1,6.301283674001752,True,False,False,False,0,0,0.5,0.6000000000000001,True,False,False,16.460012203002407,False,False,True,0,False,False,False,52,1128,16092021,PreComm_Task,None,
84,Stable,20,27,14,33,6,7,6,6.171399086000747,False,True,False,0,0,0,0,0.7000000000000001,0,False,False,0,False,False,False,8.521984872000758,True,False,False,33,1128,16092021,PreComm_Task,None,
85,Stable,91,72,85,78,23,19,-6,5.793881306999538,False,True,False,0,0,0,0,0.7000000000000001,0,False,False,0,False,False,False,8.192529657000705,False,True,False,85,1128,16092021,PreComm_Task,None,
86,Stable,55,48,54,49,9,7,-1,6.281969173996913,False,True,False,0,0,0,0,0.7000000000000001,0,False,False,0,False,False,False,8.682184757999494,False,True,False,54,1128,16092021,PreComm_Task,None,
87,Stable,20,21,21,20,3,1,-1,6.055680454999674,True,False,False,False,0,0,0.9,0.7000000000000001,True,False,False,16.695741998999438,False,True,False,0,False,False,False,21,1128,16092021,PreComm_Task,None,
88,Stable,57,50,54,53,10,7,-3,5.71210010499999,False,True,False,0,0,0,0,0.8,0,False,False,0,False,False,False,7.9619648449988745,False,True,False,54,1128,16092021,PreComm_Task,None,
89,Stable,76,63,70,69,17,13,-6,6.286740925999766,False,True,False,0,0,0,0,0.8,0,False,False,0,False,False,False,8.636661825999909,False,True,False,70,1128,16092021,PreComm_Task,None,
90,Stable,14,27,8,33,12,13,6,6.166066372003115,False,True,False,0,0,0,0,0.8,0,False,False,0,False,False,False,8.465675082003145,True,False,False,33,1128,16092021,PreComm_Task,None,
91,Stable,18,19,24,13,5,1,-6,6.009834589996899,True,False,False,True,0.5942442840023432,15.40980443999797,0.8,0.8,False,True,False,0,False,False,False,0,False,False,False,24,1128,16092021,PreComm_Task,None,
92,Stable,39,38,45,32,0,1,6,6.468101864000346,True,False,False,False,0,0,0.9,0.7000000000000001,True,False,False,17.138950344000477,False,True,False,0,False,False,False,45,1128,16092021,PreComm_Task,None,
93,Stable,57,38,56,39,21,19,-1,6.055167774000438,False,True,False,0,0,0,0,0.8,0,False,False,0,False,False,False,8.452462839999498,False,True,False,56,1128,16092021,PreComm_Task,None,
94,Stable,42,35,45,32,7,7,3,6.32031028900019,False,True,False,0,0,0,0,0.8,0,False,False,0,False,False,False,8.91823325400037,False,True,False,45,1128,16092021,PreComm_Task,None,
95,Stable,62,75,61,76,14,13,1,6.196169694998389,False,True,False,0,0,0,0,0.8,0,False,False,0,False,False,False,8.44639119400017,True,False,False,76,1128,16092021,PreComm_Task,None,
96,Stable,65,78,62,81,13,13,3,6.298045772997284,False,True,False,0,0,0,0,0.8,0,False,False,0,False,False,False,8.849053054000251,True,False,False,81,1128,16092021,PreComm_Task,None,
