TrialNumber,Condition,OptionA,OptionB,EndA,EndB,combination,difference,change,Choice_RT,Choice_Wait,Choice_Commit,Choice_Miss,Press_hit,Play_RT,RT_trialClock_play,ITI_play,Square_timing,Press_miss,Play_win_A,Play_win_B,Late_RT,Play_lost,Play_lost_chosenA,Play_lost_chosenB,Precomm_RT,Precomm_B,Precomm_A,Precomm_miss,Earnings,participant,date,expName,frameRate,
1,Stable,38,31,35,34,10,7,-3,6.258299117998831,True,False,False,True,0.5991068540006381,15.450740975998997,0.6,0.8,False,True,False,0,False,False,False,0,False,False,False,35,1089,18082021,PreComm_Task,None,
2,Stable,69,56,75,50,12,13,6,6.793843674000527,False,True,False,0,0,0,0,0.7000000000000001,0,False,False,0,False,False,False,9.693199025001377,False,True,False,75,1089,18082021,PreComm_Task,None,
3,Stable,36,35,35,36,3,1,-1,6.321882738999193,True,False,False,True,0.49860289600110264,15.720831258000544,0.9,0.7000000000000001,False,False,True,0,False,False,False,0,False,False,False,36,1089,18082021,PreComm_Task,None,
4,Stable,69,70,66,73,1,1,3,6.567898438001066,False,True,False,0,0,0,0,0.6000000000000001,0,False,False,0,False,False,False,9.817469241001163,True,False,False,73,1089,18082021,PreComm_Task,None,
5,Stable,67,80,66,81,14,13,1,6.261426172000938,False,True,False,0,0,0,0,0.6000000000000001,0,False,False,0,False,False,False,8.961289390001184,True,False,False,81,1089,18082021,PreComm_Task,None,
6,Stable,73,66,67,72,11,7,-6,6.083322631999181,False,True,False,0,0,0,0,0.6000000000000001,0,False,False,0,False,False,False,8.633965135000835,False,True,False,67,1089,18082021,PreComm_Task,None,
7,Stable,26,45,29,42,22,19,-3,6.1386874790005095,False,True,False,0,0,0,0,0.6000000000000001,0,False,False,0,False,False,False,8.28877574100079,True,False,False,42,1089,18082021,PreComm_Task,None,
8,Stable,51,70,52,69,21,19,-1,6.957674401000986,False,True,False,0,0,0,0,0.6000000000000001,0,False,False,0,False,False,False,9.25771537000037,True,False,False,69,1089,18082021,PreComm_Task,None,
9,Stable,48,35,42,41,17,13,-6,6.964373451000938,False,True,False,0,0,0,0,0.6000000000000001,0,False,False,0,False,False,False,11.552578352000637,False,False,True,0,1089,18082021,PreComm_Task,None,
10,Stable,21,28,20,29,8,7,1,6.235564300999613,False,True,False,0,0,0,0,0.6000000000000001,0,False,False,0,False,False,False,8.685311660001389,True,False,False,29,1089,18082021,PreComm_Task,None,
11,Stable,37,36,34,39,4,1,-3,5.762402072999976,False,True,False,0,0,0,0,0.6000000000000001,0,False,False,0,False,False,False,8.565118397998958,False,True,False,34,1089,18082021,PreComm_Task,None,
12,Stable,60,53,63,50,7,7,3,6.3310815209988505,False,True,False,0,0,0,0,0.6000000000000001,0,False,False,0,False,False,False,8.683153714999207,False,True,False,63,1089,18082021,PreComm_Task,None,
13,Stable,17,36,11,42,18,19,6,5.88603793600123,False,True,False,0,0,0,0,0.6000000000000001,0,False,False,0,False,False,False,8.579824684000414,True,False,False,42,1089,18082021,PreComm_Task,None,
14,Stable,7,6,8,5,2,1,1,5.8181208789992525,True,False,False,False,0,0,0.7,0.6000000000000001,True,False,False,16.165323837998585,False,False,True,0,False,False,False,5,1089,18082021,PreComm_Task,None,
15,Stable,79,66,78,67,15,13,-1,6.646999887001584,False,True,False,0,0,0,0,0.7000000000000001,0,False,False,0,False,False,False,9.208606231000886,False,True,False,78,1089,18082021,PreComm_Task,None,
16,Stable,66,47,69,44,19,19,3,5.851559753999027,False,True,False,0,0,0,0,0.7000000000000001,0,False,False,0,False,False,False,8.001171873000203,False,True,False,69,1089,18082021,PreComm_Task,None,
17,Stable,93,74,94,73,20,19,1,5.909344766001595,False,True,False,0,0,0,0,0.7000000000000001,0,False,False,0,False,False,False,8.357920545000525,False,True,False,94,1089,18082021,PreComm_Task,None,
18,Stable,10,29,16,23,23,19,-6,6.086831378999705,False,True,False,0,0,0,0,0.7000000000000001,0,False,False,0,False,False,False,8.78637111900025,True,False,False,23,1089,18082021,PreComm_Task,None,
19,Stable,37,38,43,32,5,1,-6,6.442272760999913,False,True,False,0,0,0,0,0.7000000000000001,0,False,False,0,False,False,False,8.692072764999466,True,False,False,32,1089,18082021,PreComm_Task,None,
20,Stable,40,41,34,47,0,1,6,6.64606279399959,True,False,False,True,0.5412477780009795,16.196907925999767,1.0,0.7000000000000001,False,False,True,0,False,False,False,0,False,False,False,47,1089,18082021,PreComm_Task,None,
21,Stable,43,50,37,56,6,7,6,5.825348357999246,False,True,False,0,0,0,0,0.6000000000000001,0,False,False,0,False,False,False,8.575738551999166,True,False,False,56,1089,18082021,PreComm_Task,None,
22,Stable,54,67,57,64,16,13,-3,6.05271290500059,False,True,False,0,0,0,0,0.6000000000000001,0,False,False,0,False,False,False,8.702109869000196,True,False,False,64,1089,18082021,PreComm_Task,None,
23,Stable,75,62,78,59,13,13,3,5.494750035999459,False,True,False,0,0,0,0,0.6000000000000001,0,False,False,0,False,False,False,7.843650848000834,False,True,False,78,1089,18082021,PreComm_Task,None,
24,Stable,17,10,16,11,9,7,-1,5.583091631999196,False,True,False,0,0,0,0,0.6000000000000001,0,False,False,0,False,False,False,8.332167026999741,False,True,False,16,1089,18082021,PreComm_Task,None,
25,Stable,20,19,23,16,1,1,3,5.939505619000556,False,True,False,0,0,0,0,0.6000000000000001,0,False,False,0,False,False,False,8.139473323999482,True,False,False,16,1089,18082021,PreComm_Task,None,
26,Stable,9,16,6,19,7,7,3,5.666645606999737,False,True,False,0,0,0,0,0.6000000000000001,0,False,False,0,False,False,False,8.065559025000766,True,False,False,19,1089,18082021,PreComm_Task,None,
27,Stable,19,6,18,7,15,13,-1,5.505226237999523,False,True,False,0,0,0,0,0.6000000000000001,0,False,False,0,False,False,False,7.654924470998594,False,True,False,18,1089,18082021,PreComm_Task,None,
28,Stable,44,31,41,34,16,13,-3,5.72673193799892,False,True,False,0,0,0,0,0.6000000000000001,0,False,False,0,False,False,False,10.225533673999962,False,True,False,41,1089,18082021,PreComm_Task,None,
29,Stable,42,41,48,35,0,1,6,6.075544979999904,False,True,False,0,0,0,0,0.6000000000000001,0,False,False,0,False,False,False,8.575932636998914,False,True,False,48,1089,18082021,PreComm_Task,None,
30,Stable,45,64,39,70,18,19,6,5.970153442998708,False,True,False,0,0,0,0,0.6000000000000001,0,False,False,0,False,False,False,8.070698869998523,True,False,False,70,1089,18082021,PreComm_Task,None,
31,Stable,31,18,25,24,17,13,-6,5.849613935000889,False,True,False,0,0,0,0,0.6000000000000001,0,False,False,0,False,False,False,8.448861720000423,False,True,False,25,1089,18082021,PreComm_Task,None,
32,Stable,36,17,39,14,19,19,3,5.775905373000569,False,True,False,0,0,0,0,0.6000000000000001,0,False,False,0,False,False,False,7.977914601999146,False,True,False,39,1089,18082021,PreComm_Task,None,
33,Stable,56,57,59,54,4,1,-3,5.569896096998491,False,True,False,0,0,0,0,0.6000000000000001,0,False,False,0,False,False,False,7.720436246998361,True,False,False,54,1089,18082021,PreComm_Task,None,
34,Stable,65,66,64,67,2,1,1,6.319452996000109,True,False,False,False,0,0,0.8,0.6000000000000001,True,False,False,16.822118463998777,False,True,False,0,False,False,False,64,1089,18082021,PreComm_Task,None,
35,Stable,49,56,48,57,8,7,1,6.043519734999791,False,True,False,0,0,0,0,0.7000000000000001,0,False,False,0,False,False,False,8.293145220999577,True,False,False,57,1089,18082021,PreComm_Task,None,
36,Stable,22,15,19,18,10,7,-3,5.703157496000131,False,True,False,0,0,0,0,0.7000000000000001,0,False,False,0,False,False,False,8.25018129900127,False,True,False,19,1089,18082021,PreComm_Task,None,
37,Stable,29,28,28,29,3,1,-1,5.968042631000571,True,False,False,True,0.5136180230001628,15.46903483099959,1.0,0.7000000000000001,False,False,True,0,False,False,False,0,False,False,False,29,1089,18082021,PreComm_Task,None,
38,Stable,29,30,35,24,5,1,-6,6.3581140949991095,True,False,False,True,0.5430320440009382,15.408030752998457,0.5,0.6000000000000001,False,True,False,0,False,False,False,0,False,False,False,35,1089,18082021,PreComm_Task,None,
39,Stable,81,74,80,75,9,7,-1,5.90622375699968,False,True,False,0,0,0,0,0.5000000000000001,0,False,False,0,False,False,False,8.355093242000294,False,True,False,80,1089,18082021,PreComm_Task,None,
40,Stable,52,45,46,51,11,7,-6,5.51597048900112,False,True,False,0,0,0,0,0.5000000000000001,0,False,False,0,False,False,False,7.716009351001048,False,True,False,46,1089,18082021,PreComm_Task,None,
41,Stable,8,21,2,27,12,13,6,5.821214642000996,True,False,False,False,0,0,0.2,0.5000000000000001,True,False,False,15.589815179000652,False,True,False,0,False,False,False,2,1089,18082021,PreComm_Task,None,
42,Stable,67,54,70,51,13,13,3,6.483872336000786,False,True,False,0,0,0,0,0.6000000000000001,0,False,False,0,False,False,False,8.68239641800028,False,True,False,70,1089,18082021,PreComm_Task,None,
43,Stable,69,88,72,85,22,19,-3,5.780790703000093,False,True,False,0,0,0,0,0.6000000000000001,0,False,False,0,False,False,False,8.28065104200141,True,False,False,85,1089,18082021,PreComm_Task,None,
44,Stable,30,17,31,16,14,13,1,5.695441854000819,False,True,False,0,0,0,0,0.6000000000000001,0,False,False,0,False,False,False,8.348009794999598,False,True,False,31,1089,18082021,PreComm_Task,None,
45,Stable,70,89,76,83,23,19,-6,5.819478968000112,False,True,False,0,0,0,0,0.6000000000000001,0,False,False,0,False,False,False,8.519167631999153,True,False,False,83,1089,18082021,PreComm_Task,None,
46,Stable,89,70,88,71,21,19,-1,5.652357242999642,False,True,False,0,0,0,0,0.6000000000000001,0,False,False,0,False,False,False,8.102035160000014,False,True,False,88,1089,18082021,PreComm_Task,None,
47,Stable,23,42,22,43,20,19,1,5.761920861999897,True,False,False,True,0.5058260059995519,14.762328193999565,0.5,0.6000000000000001,False,False,True,0,False,False,False,0,False,False,False,43,1089,18082021,PreComm_Task,None,
48,Stable,60,53,66,47,6,7,6,6.126493944999311,False,True,False,0,0,0,0,0.5000000000000001,0,False,False,0,False,False,False,8.225232705999588,False,True,False,66,1089,18082021,PreComm_Task,None,
49,Stable,6,13,7,12,9,7,-1,9.324771741999939,False,True,False,0,0,0,0,0.5000000000000001,0,False,False,0,False,False,False,12.073776002000159,True,False,False,12,1089,18082021,PreComm_Task,None,
50,Stable,16,35,13,38,19,19,3,5.395522226999674,False,True,False,0,0,0,0,0.5000000000000001,0,False,False,0,False,False,False,7.593097764998674,True,False,False,38,1089,18082021,PreComm_Task,None,
51,Stable,76,69,73,72,10,7,-3,5.575904958001047,False,True,False,0,0,0,0,0.5000000000000001,0,False,False,0,False,False,False,7.775213597000402,False,True,False,73,1089,18082021,PreComm_Task,None,
52,Stable,52,53,49,56,1,1,3,6.464051168999504,True,False,False,False,0,0,0.9,0.5000000000000001,True,False,False,16.960022156999912,False,False,True,0,False,False,False,56,1089,18082021,PreComm_Task,None,
53,Stable,43,44,49,38,5,1,-6,6.400304299000709,True,False,False,True,0.5377636390003318,15.550445236000087,0.6,0.6000000000000001,False,True,False,0,False,False,False,0,False,False,False,49,1089,18082021,PreComm_Task,None,
54,Stable,51,52,52,51,3,1,-1,6.166901234000761,True,False,False,False,0,0,0.6,0.5000000000000001,True,False,False,16.304845667000336,False,False,True,0,False,False,False,51,1089,18082021,PreComm_Task,None,
55,Stable,85,66,86,65,20,19,1,5.611039801000516,False,True,False,0,0,0,0,0.6000000000000001,0,False,False,0,False,False,False,7.910295745999974,False,True,False,86,1089,18082021,PreComm_Task,None,
56,Stable,12,31,6,37,18,19,6,6.175569382001413,False,True,False,0,0,0,0,0.6000000000000001,0,False,False,0,False,False,False,8.776182540999798,True,False,False,37,1089,18082021,PreComm_Task,None,
57,Stable,44,31,50,25,12,13,6,5.463641546000872,False,True,False,0,0,0,0,0.6000000000000001,0,False,False,0,False,False,False,8.061799188000805,False,True,False,50,1089,18082021,PreComm_Task,None,
58,Stable,58,51,61,48,7,7,3,6.0407762470003945,False,True,False,0,0,0,0,0.6000000000000001,0,False,False,0,False,False,False,8.240100863000407,False,True,False,61,1089,18082021,PreComm_Task,None,
59,Stable,48,47,54,41,0,1,6,6.229031195000061,True,False,False,True,0.4765323150004406,15.32816197700049,0.6,0.6000000000000001,False,True,False,0,False,False,False,0,False,False,False,54,1089,18082021,PreComm_Task,None,
60,Stable,60,59,61,58,2,1,1,6.114001012001609,True,False,False,True,0.4967657209999743,15.11439401500138,0.5,0.5000000000000001,False,True,False,0,False,False,False,0,False,False,False,61,1089,18082021,PreComm_Task,None,
61,Stable,59,66,53,72,6,7,6,6.066180510999402,False,True,False,0,0,0,0,0.40000000000000013,0,False,False,0,False,False,False,8.56728534800095,True,False,False,72,1089,18082021,PreComm_Task,None,
62,Stable,68,81,65,84,13,13,3,5.498089434999201,False,True,False,0,0,0,0,0.40000000000000013,0,False,False,0,False,False,False,7.748367750999023,True,False,False,84,1089,18082021,PreComm_Task,None,
63,Stable,65,52,59,58,17,13,-6,5.19919347799987,False,True,False,0,0,0,0,0.40000000000000013,0,False,False,0,False,False,False,6.80045836499994,False,True,False,59,1089,18082021,PreComm_Task,None,
64,Stable,29,36,35,30,11,7,-6,5.675382355999318,False,True,False,0,0,0,0,0.40000000000000013,0,False,False,0,False,False,False,8.124848965999263,True,False,False,30,1089,18082021,PreComm_Task,None,
65,Stable,70,51,67,54,22,19,-3,5.366731974998402,False,True,False,0,0,0,0,0.40000000000000013,0,False,False,0,False,False,False,7.86566346699874,False,True,False,67,1089,18082021,PreComm_Task,None,
66,Stable,76,63,75,64,15,13,-1,5.56679879100011,False,True,False,0,0,0,0,0.40000000000000013,0,False,False,0,False,False,False,7.816374031001033,False,True,False,75,1089,18082021,PreComm_Task,None,
67,Stable,30,31,33,28,4,1,-3,6.917309513000873,False,True,False,0,0,0,0,0.40000000000000013,0,False,False,0,False,False,False,9.417095792001419,True,False,False,28,1089,18082021,PreComm_Task,None,
68,Stable,53,72,59,66,23,19,-6,5.474587386999701,False,True,False,0,0,0,0,0.40000000000000013,0,False,False,0,False,False,False,7.776472982999621,True,False,False,66,1089,18082021,PreComm_Task,None,
69,Stable,69,56,70,55,14,13,1,5.6611522549992515,False,True,False,0,0,0,0,0.40000000000000013,0,False,False,0,False,False,False,7.960909907998939,False,True,False,70,1089,18082021,PreComm_Task,None,
70,Stable,17,36,18,35,21,19,-1,5.582744418999937,False,True,False,0,0,0,0,0.40000000000000013,0,False,False,0,False,False,False,8.08014210500005,True,False,False,35,1089,18082021,PreComm_Task,None,
71,Stable,78,71,79,70,8,7,1,5.464402416000667,False,True,False,0,0,0,0,0.40000000000000013,0,False,False,0,False,False,False,7.612740787000803,False,True,False,79,1089,18082021,PreComm_Task,None,
72,Stable,46,59,49,56,16,13,-3,5.419536428000356,False,True,False,0,0,0,0,0.40000000000000013,0,False,False,0,False,False,False,7.719550858999355,True,False,False,56,1089,18082021,PreComm_Task,None,
73,Stable,42,23,39,26,22,19,-3,5.476239900999644,False,True,False,0,0,0,0,0.40000000000000013,0,False,False,0,False,False,False,7.5796324590010045,False,True,False,39,1089,18082021,PreComm_Task,None,
74,Stable,47,66,48,65,21,19,-1,5.672579727000993,False,True,False,0,0,0,0,0.40000000000000013,0,False,False,0,False,False,False,8.273181030999694,True,False,False,65,1089,18082021,PreComm_Task,None,
75,Stable,57,50,56,51,9,7,-1,5.694679692000136,False,True,False,0,0,0,0,0.40000000000000013,0,False,False,0,False,False,False,8.296469930999592,False,True,False,56,1089,18082021,PreComm_Task,None,
76,Stable,70,83,69,84,14,13,1,5.561986557999262,False,True,False,0,0,0,0,0.40000000000000013,0,False,False,0,False,False,False,7.965080648998992,True,False,False,84,1089,18082021,PreComm_Task,None,
77,Stable,30,29,29,30,3,1,-1,5.518341711000176,False,True,False,0,0,0,0,0.40000000000000013,0,False,False,0,False,False,False,7.973591099998885,False,True,False,29,1089,18082021,PreComm_Task,None,
78,Stable,63,70,60,73,7,7,3,5.426141365000149,False,True,False,0,0,0,0,0.40000000000000013,0,False,False,0,False,False,False,7.6751400160010235,True,False,False,73,1089,18082021,PreComm_Task,None,
79,Stable,69,70,75,64,5,1,-6,5.208894942999905,False,True,False,0,0,0,0,0.40000000000000013,0,False,False,0,False,False,False,7.558023835001222,True,False,False,64,1089,18082021,PreComm_Task,None,
80,Stable,49,62,43,68,12,13,6,5.50618222400044,False,True,False,0,0,0,0,0.40000000000000013,0,False,False,0,False,False,False,8.106935562000217,True,False,False,68,1089,18082021,PreComm_Task,None,
81,Stable,49,36,52,33,13,13,3,6.114420424000855,False,True,False,0,0,0,0,0.40000000000000013,0,False,False,0,False,False,False,8.662052935000247,False,True,False,52,1089,18082021,PreComm_Task,None,
82,Stable,12,19,15,16,10,7,-3,5.731295821999083,False,True,False,0,0,0,0,0.40000000000000013,0,False,False,0,False,False,False,8.130773963999673,True,False,False,16,1089,18082021,PreComm_Task,None,
83,Stable,74,93,80,87,23,19,-6,5.510530354998991,False,True,False,0,0,0,0,0.40000000000000013,0,False,False,0,False,False,False,7.759684077998827,True,False,False,87,1089,18082021,PreComm_Task,None,
84,Stable,60,41,63,38,19,19,3,5.518505955000364,False,True,False,0,0,0,0,0.40000000000000013,0,False,False,0,False,False,False,8.018521852000049,False,True,False,63,1089,18082021,PreComm_Task,None,
85,Stable,8,21,14,15,17,13,-6,5.1838811060006265,False,True,False,0,0,0,0,0.40000000000000013,0,False,False,0,False,False,False,7.383572971000831,True,False,False,15,1089,18082021,PreComm_Task,None,
86,Stable,68,49,69,48,20,19,1,5.59957235299953,False,True,False,0,0,0,0,0.40000000000000013,0,False,False,0,False,False,False,7.848806697000327,False,True,False,69,1089,18082021,PreComm_Task,None,
87,Stable,30,29,31,28,2,1,1,5.845446154999081,False,True,False,0,0,0,0,0.40000000000000013,0,False,False,0,False,False,False,8.49468560799869,False,True,False,31,1089,18082021,PreComm_Task,None,
88,Stable,8,21,11,18,16,13,-3,5.5334740779999265,False,True,False,0,0,0,0,0.40000000000000013,0,False,False,0,False,False,False,7.9341640080001525,True,False,False,18,1089,18082021,PreComm_Task,None,
89,Stable,62,69,68,63,11,7,-6,5.615219908000654,False,True,False,0,0,0,0,0.40000000000000013,0,False,False,0,False,False,False,8.31332776400086,True,False,False,63,1089,18082021,PreComm_Task,None,
90,Stable,73,54,79,48,18,19,6,5.912738435999927,False,True,False,0,0,0,0,0.40000000000000013,0,False,False,0,False,False,False,8.061422648999724,False,True,False,79,1089,18082021,PreComm_Task,None,
91,Stable,43,42,40,45,4,1,-3,5.380681585000275,False,True,False,0,0,0,0,0.40000000000000013,0,False,False,0,False,False,False,7.930424371001209,False,True,False,40,1089,18082021,PreComm_Task,None,
92,Stable,75,62,74,63,15,13,-1,6.037161989001106,False,True,False,0,0,0,0,0.40000000000000013,0,False,False,0,False,False,False,8.686937374999616,False,True,False,74,1089,18082021,PreComm_Task,None,
93,Stable,70,63,71,62,8,7,1,5.853486015999806,False,True,False,0,0,0,0,0.40000000000000013,0,False,False,0,False,False,False,8.502894187999118,False,True,False,71,1089,18082021,PreComm_Task,None,
94,Stable,16,15,22,9,0,1,6,5.922393313998327,True,False,False,False,0,0,0.5,0.40000000000000013,True,False,False,15.875127363999127,False,True,False,0,False,False,False,22,1089,18082021,PreComm_Task,None,
95,Stable,77,70,83,64,6,7,6,6.45382787500057,False,True,False,0,0,0,0,0.5000000000000001,0,False,False,0,False,False,False,8.702418212000339,False,True,False,83,1089,18082021,PreComm_Task,None,
96,Stable,26,25,29,22,1,1,3,6.032002571999328,True,False,False,True,0.2285133269997459,15.063333645999592,0.8,0.5000000000000001,False,True,False,0,False,False,False,0,False,False,False,29,1089,18082021,PreComm_Task,None,
