TrialNumber,Condition,OptionA,OptionB,EndA,EndB,combination,difference,change,Choice_RT,Choice_Wait,Choice_Commit,Choice_Miss,Press_hit,Play_RT,RT_trialClock_play,ITI_play,Square_timing,Press_miss,Play_win_A,Play_win_B,Late_RT,Play_lost,Play_lost_chosenA,Play_lost_chosenB,Precomm_RT,Precomm_B,Precomm_A,Precomm_miss,Earnings,participant,date,expName,frameRate,
1,Stable,50,49,44,55,5,1,-6,7.306970795005327,True,False,False,True,0.5711272070038831,16.500693642999977,0.6,0.8,False,False,True,0,False,False,False,0,False,False,False,55,1143,08102021,PreComm_Task,None,
2,Stable,48,49,51,46,4,1,-3,7.852351786001236,True,False,False,True,0.7001134770107456,17.550444894004613,1.0,0.7000000000000001,False,True,False,0,False,False,False,0,False,False,False,51,1143,08102021,PreComm_Task,None,
3,Stable,24,37,25,36,15,13,-1,7.969031487999018,True,False,False,False,0,0,0.8,0.6000000000000001,True,False,False,18.43247213900031,False,False,True,0,False,False,False,36,1143,08102021,PreComm_Task,None,
4,Stable,66,79,72,73,17,13,-6,7.628853652000544,True,False,False,True,0.6222047389892396,17.17971674799628,0.9,0.7000000000000001,False,False,True,0,False,False,False,0,False,False,False,73,1143,08102021,PreComm_Task,None,
5,Stable,52,53,49,56,1,1,3,6.861047262005741,True,False,False,False,0,0,0.9,0.6000000000000001,True,False,False,17.42913735800539,False,True,False,0,False,False,False,49,1143,08102021,PreComm_Task,None,
6,Stable,44,37,38,43,11,7,-6,6.323108583004796,True,False,False,True,0.6485412829933921,15.87269654800184,0.9,0.7000000000000001,False,False,True,0,False,False,False,0,False,False,False,43,1143,08102021,PreComm_Task,None,
7,Stable,42,49,39,52,7,7,3,7.177192109986208,True,False,False,False,0,0,0.8,0.6000000000000001,True,False,False,17.641272821987513,False,False,True,0,False,False,False,52,1143,08102021,PreComm_Task,None,
8,Stable,22,29,16,35,6,7,6,6.422522003995255,True,False,False,True,0.6995617909997236,15.522639097005595,0.4,0.7000000000000001,False,False,True,0,False,False,False,0,False,False,False,35,1143,08102021,PreComm_Task,None,
9,Stable,26,27,20,33,0,1,6,7.219607157996506,True,False,False,False,0,0,0.9,0.6000000000000001,True,False,False,17.793474364007125,False,True,False,0,False,False,False,20,1143,08102021,PreComm_Task,None,
10,Stable,36,49,33,52,13,13,3,6.344975428000907,True,False,False,False,0,0,0.7,0.7000000000000001,True,False,False,16.791805590997683,False,True,False,0,False,False,False,33,1143,08102021,PreComm_Task,None,
11,Stable,55,62,58,59,10,7,-3,5.949383286002558,True,False,False,True,0.5555881680047605,15.499142917993595,1.0,0.8,False,False,True,0,False,False,False,0,False,False,False,59,1143,08102021,PreComm_Task,None,
12,Stable,59,40,62,37,19,19,3,5.9699642110063,True,False,False,True,0.5493828510079766,14.716337785997894,0.2,0.7000000000000001,False,True,False,0,False,False,False,0,False,False,False,62,1143,08102021,PreComm_Task,None,
13,Stable,12,13,11,14,2,1,1,6.511746998992749,True,False,False,True,0.5014526750019286,15.812957026995718,0.8,0.6000000000000001,False,False,True,0,False,False,False,0,False,False,False,14,1143,08102021,PreComm_Task,None,
14,Stable,20,39,14,45,18,19,6,6.4646838959888555,True,False,False,False,0,0,0.9,0.5000000000000001,True,False,False,16.923908604992903,False,True,False,0,False,False,False,14,1143,08102021,PreComm_Task,None,
15,Stable,57,76,58,75,21,19,-1,8.5082680839987,False,False,True,0,0,0,0,0.6000000000000001,0,False,False,0,False,False,False,0,False,False,False,0,1143,08102021,PreComm_Task,None,
16,Stable,14,27,17,24,16,13,-3,5.628428112002439,True,False,False,False,0,0,0.9,0.6000000000000001,True,False,False,16.191974171000766,False,False,True,0,False,False,False,24,1143,08102021,PreComm_Task,None,
17,Stable,61,42,58,45,22,19,-3,6.780058635995374,True,False,False,True,0.685362153002643,15.979582825995749,0.5,0.7000000000000001,False,True,False,0,False,False,False,0,False,False,False,58,1143,08102021,PreComm_Task,None,
18,Stable,92,73,86,79,23,19,-6,6.778597892000107,True,False,False,True,0.5270641379902372,16.129388551999,0.8,0.6000000000000001,False,True,False,0,False,False,False,0,False,False,False,86,1143,08102021,PreComm_Task,None,
19,Stable,57,44,63,38,12,13,6,5.85252154499176,True,False,False,False,0,0,0.5,0.5000000000000001,True,False,False,15.928058000994497,False,True,False,0,False,False,False,63,1143,08102021,PreComm_Task,None,
20,Stable,23,30,22,31,8,7,1,5.877107004009304,True,False,False,False,0,0,0.6,0.6000000000000001,True,False,False,16.149074239001493,False,True,False,0,False,False,False,22,1143,08102021,PreComm_Task,None,
21,Stable,56,63,57,62,9,7,-1,5.527241991003393,True,False,False,True,0.5069062069960637,14.327794031996746,0.3,0.7000000000000001,False,False,True,0,False,False,False,0,False,False,False,62,1143,08102021,PreComm_Task,None,
22,Stable,36,55,35,56,20,19,1,5.808478551989538,False,True,False,0,0,0,0,0.6000000000000001,0,False,False,0,False,False,False,7.806679675995838,True,False,False,56,1143,08102021,PreComm_Task,None,
23,Stable,44,57,43,58,14,13,1,5.909279958999832,False,True,False,0,0,0,0,0.6000000000000001,0,False,False,0,False,False,False,10.41328300400346,True,False,False,58,1143,08102021,PreComm_Task,None,
24,Stable,55,54,54,55,3,1,-1,6.50839351900504,False,True,False,0,0,0,0,0.6000000000000001,0,False,False,0,False,False,False,8.65859227400506,False,True,False,54,1143,08102021,PreComm_Task,None,
25,Stable,9,28,6,31,19,19,3,5.957312330996501,False,True,False,0,0,0,0,0.6000000000000001,0,False,False,0,False,False,False,8.256890193995787,True,False,False,31,1143,08102021,PreComm_Task,None,
26,Stable,58,51,61,48,7,7,3,6.326399091005442,False,True,False,0,0,0,0,0.6000000000000001,0,False,False,0,False,False,False,8.825323797995225,False,True,False,61,1143,08102021,PreComm_Task,None,
27,Stable,50,51,44,57,0,1,6,6.119796483995742,False,True,False,0,0,0,0,0.6000000000000001,0,False,False,0,False,False,False,9.470710491994396,True,False,False,57,1143,08102021,PreComm_Task,None,
28,Stable,55,56,52,59,1,1,3,6.156904584990116,False,True,False,0,0,0,0,0.6000000000000001,0,False,False,0,False,False,False,8.906156084995018,True,False,False,59,1143,08102021,PreComm_Task,None,
29,Stable,75,68,69,74,11,7,-6,5.535938696993981,False,True,False,0,0,0,0,0.6000000000000001,0,False,False,0,False,False,False,8.435012000001734,False,True,False,69,1143,08102021,PreComm_Task,None,
30,Stable,16,9,17,8,8,7,1,6.223527289999765,False,True,False,0,0,0,0,0.6000000000000001,0,False,False,0,False,False,False,9.023840738998842,False,True,False,17,1143,08102021,PreComm_Task,None,
31,Stable,33,14,30,17,22,19,-3,6.668835317002959,False,True,False,0,0,0,0,0.6000000000000001,0,False,False,0,False,False,False,9.22655955600203,False,True,False,30,1143,08102021,PreComm_Task,None,
32,Stable,48,41,45,44,10,7,-3,5.877600320003694,False,True,False,0,0,0,0,0.6000000000000001,0,False,False,0,False,False,False,8.675316870008828,False,True,False,45,1143,08102021,PreComm_Task,None,
33,Stable,25,38,24,39,14,13,1,6.646473066008184,False,True,False,0,0,0,0,0.6000000000000001,0,False,False,0,False,False,False,9.692404422006803,True,False,False,39,1143,08102021,PreComm_Task,None,
34,Stable,40,47,41,46,9,7,-1,5.459168248009519,False,True,False,0,0,0,0,0.6000000000000001,0,False,False,0,False,False,False,7.855562491007731,True,False,False,46,1143,08102021,PreComm_Task,None,
35,Stable,71,70,68,73,4,1,-3,6.143263588004629,False,True,False,0,0,0,0,0.6000000000000001,0,False,False,0,False,False,False,7.743004161005956,False,True,False,68,1143,08102021,PreComm_Task,None,
36,Stable,21,34,18,37,13,13,3,5.641535343005671,False,True,False,0,0,0,0,0.6000000000000001,0,False,False,0,False,False,False,8.640532258010353,True,False,False,37,1143,08102021,PreComm_Task,None,
37,Stable,36,35,35,36,3,1,-1,6.4551519569940865,False,True,False,0,0,0,0,0.6000000000000001,0,False,False,0,False,False,False,8.755422627000371,False,True,False,35,1143,08102021,PreComm_Task,None,
38,Stable,43,44,49,38,5,1,-6,5.563476801995421,False,True,False,0,0,0,0,0.6000000000000001,0,False,False,0,False,False,False,7.913671358997817,True,False,False,38,1143,08102021,PreComm_Task,None,
39,Stable,45,58,46,57,15,13,-1,5.860819859008188,False,True,False,0,0,0,0,0.6000000000000001,0,False,False,0,False,False,False,9.05932953300362,True,False,False,57,1143,08102021,PreComm_Task,None,
40,Stable,74,93,73,94,20,19,1,7.113490614006878,False,True,False,0,0,0,0,0.6000000000000001,0,False,False,0,False,False,False,9.61150755500421,True,False,False,94,1143,08102021,PreComm_Task,None,
41,Stable,42,23,36,29,23,19,-6,6.109728865005309,False,True,False,0,0,0,0,0.6000000000000001,0,False,False,0,False,False,False,8.60938959500345,False,True,False,36,1143,08102021,PreComm_Task,None,
42,Stable,10,11,9,12,2,1,1,7.2551827679999406,True,False,False,True,0.5857092380028917,16.854536904007546,1.0,0.6000000000000001,False,False,True,0,False,False,False,0,False,False,False,12,1143,08102021,PreComm_Task,None,
43,Stable,55,42,49,48,17,13,-6,7.056245144005516,False,True,False,0,0,0,0,0.5000000000000001,0,False,False,0,False,False,False,9.556425236005452,False,True,False,49,1143,08102021,PreComm_Task,None,
44,Stable,62,43,68,37,18,19,6,6.1149894280097215,False,True,False,0,0,0,0,0.5000000000000001,0,False,False,0,False,False,False,8.666103499010205,False,True,False,68,1143,08102021,PreComm_Task,None,
45,Stable,22,35,16,41,12,13,6,5.966248358992743,True,False,False,False,0,0,0.9,0.5000000000000001,True,False,False,16.416679561996716,False,False,True,0,False,False,False,41,1143,08102021,PreComm_Task,None,
46,Stable,46,65,47,64,21,19,-1,6.237918961996911,False,True,False,0,0,0,0,0.6000000000000001,0,False,False,0,False,False,False,9.340604982004152,True,False,False,64,1143,08102021,PreComm_Task,None,
47,Stable,71,58,68,61,16,13,-3,5.590757661004318,False,True,False,0,0,0,0,0.6000000000000001,0,False,False,0,False,False,False,8.090220985002816,False,True,False,68,1143,08102021,PreComm_Task,None,
48,Stable,35,42,29,48,6,7,6,6.5095087380032055,False,True,False,0,0,0,0,0.6000000000000001,0,False,False,0,False,False,False,9.858994908994646,True,False,False,48,1143,08102021,PreComm_Task,None,
49,Stable,57,76,58,75,21,19,-1,10.805946919004782,False,True,False,0,0,0,0,0.6000000000000001,0,False,False,0,False,False,False,13.307670241003507,True,False,False,75,1143,08102021,PreComm_Task,None,
50,Stable,32,51,31,52,20,19,1,5.691217341009178,False,True,False,0,0,0,0,0.6000000000000001,0,False,False,0,False,False,False,8.141400907014031,True,False,False,52,1143,08102021,PreComm_Task,None,
51,Stable,46,27,40,33,23,19,-6,6.5528251150099095,False,True,False,0,0,0,0,0.6000000000000001,0,False,False,0,False,False,False,9.101729724003235,False,True,False,40,1143,08102021,PreComm_Task,None,
52,Stable,46,47,40,53,0,1,6,5.358969768989482,False,True,False,0,0,0,0,0.6000000000000001,0,False,False,0,False,False,False,7.958428488986101,True,False,False,53,1143,08102021,PreComm_Task,None,
53,Stable,51,44,48,47,10,7,-3,6.0596595109964255,False,True,False,0,0,0,0,0.6000000000000001,0,False,False,0,False,False,False,8.910090127988951,False,True,False,48,1143,08102021,PreComm_Task,None,
54,Stable,24,17,23,18,9,7,-1,7.679506607993972,True,False,False,True,0.5813456710020546,17.283119934989372,1.0,0.6000000000000001,False,True,False,0,False,False,False,0,False,False,False,23,1143,08102021,PreComm_Task,None,
55,Stable,65,72,59,78,6,7,6,6.218280000000959,True,False,False,False,0,0,0.2,0.5000000000000001,True,False,False,15.9943081310048,False,False,True,0,False,False,False,78,1143,08102021,PreComm_Task,None,
56,Stable,69,82,72,79,16,13,-3,6.491047439005342,False,True,False,0,0,0,0,0.6000000000000001,0,False,False,0,False,False,False,9.28998784100986,True,False,False,79,1143,08102021,PreComm_Task,None,
57,Stable,43,42,44,41,2,1,1,6.357988572999602,True,False,False,True,0.5436737830023048,15.408274936999078,0.5,0.6000000000000001,False,True,False,0,False,False,False,0,False,False,False,44,1143,08102021,PreComm_Task,None,
58,Stable,8,7,11,4,1,1,3,6.35984632599866,True,False,False,False,0,0,0.6,0.5000000000000001,True,False,False,16.498823374000494,False,False,True,0,False,False,False,4,1143,08102021,PreComm_Task,None,
59,Stable,68,61,62,67,11,7,-6,6.510190979010076,False,True,False,0,0,0,0,0.6000000000000001,0,False,False,0,False,False,False,9.00962766300654,False,True,False,62,1143,08102021,PreComm_Task,None,
60,Stable,70,51,73,48,19,19,3,6.319357753003715,False,True,False,0,0,0,0,0.6000000000000001,0,False,False,0,False,False,False,8.763690454012249,False,True,False,73,1143,08102021,PreComm_Task,None,
61,Stable,33,20,34,19,14,13,1,7.329748825010029,False,True,False,0,0,0,0,0.6000000000000001,0,False,False,0,False,False,False,10.530233852012316,False,True,False,34,1143,08102021,PreComm_Task,None,
62,Stable,58,71,52,77,12,13,6,5.7585185049974825,False,True,False,0,0,0,0,0.6000000000000001,0,False,False,0,False,False,False,8.357096337000257,True,False,False,77,1143,08102021,PreComm_Task,None,
63,Stable,36,43,33,46,7,7,3,6.002049621994956,False,True,False,0,0,0,0,0.6000000000000001,0,False,False,0,False,False,False,9.101339738001116,True,False,False,46,1143,08102021,PreComm_Task,None,
64,Stable,62,81,56,87,18,19,6,6.708665685000597,False,True,False,0,0,0,0,0.6000000000000001,0,False,False,0,False,False,False,9.157794026992633,True,False,False,87,1143,08102021,PreComm_Task,None,
65,Stable,58,71,64,65,17,13,-6,6.856519220993505,False,True,False,0,0,0,0,0.6000000000000001,0,False,False,0,False,False,False,9.1058340449963,True,False,False,65,1143,08102021,PreComm_Task,None,
66,Stable,24,23,23,24,3,1,-1,5.934901846005232,True,False,False,True,0.5568252369994298,14.6854727500031,0.2,0.6000000000000001,False,False,True,0,False,False,False,0,False,False,False,24,1143,08102021,PreComm_Task,None,
67,Stable,23,22,17,28,5,1,-6,6.206830153998453,True,False,False,True,0.45621697801107075,14.9577292210015,0.3,0.5000000000000001,False,False,True,0,False,False,False,0,False,False,False,28,1143,08102021,PreComm_Task,None,
68,Stable,61,42,58,45,22,19,-3,6.367198154999642,False,True,False,0,0,0,0,0.40000000000000013,0,False,False,0,False,False,False,8.861264200997539,False,True,False,58,1143,08102021,PreComm_Task,None,
69,Stable,8,7,5,10,4,1,-3,5.976341968009365,True,False,False,False,0,0,0.5,0.40000000000000013,True,False,False,15.96840975699888,False,False,True,0,False,False,False,10,1143,08102021,PreComm_Task,None,
70,Stable,45,58,42,61,13,13,3,5.855703667999478,True,False,False,False,0,0,0.9,0.5000000000000001,True,False,False,16.32380857098906,False,False,True,0,False,False,False,61,1143,08102021,PreComm_Task,None,
71,Stable,52,59,51,60,8,7,1,6.164354363994789,False,True,False,0,0,0,0,0.6000000000000001,0,False,False,0,False,False,False,8.714776148000965,True,False,False,60,1143,08102021,PreComm_Task,None,
72,Stable,36,49,37,48,15,13,-1,7.07196353499603,False,True,False,0,0,0,0,0.6000000000000001,0,False,False,0,False,False,False,9.471810467992327,True,False,False,48,1143,08102021,PreComm_Task,None,
73,Stable,20,21,17,24,1,1,3,6.159967084997334,True,False,False,True,0.4973586720007006,15.660433401004411,1.0,0.6000000000000001,False,False,True,0,False,False,False,0,False,False,False,24,1143,08102021,PreComm_Task,None,
74,Stable,25,38,26,37,15,13,-1,6.212967358005699,False,True,False,0,0,0,0,0.5000000000000001,0,False,False,0,False,False,False,8.56434487500519,True,False,False,37,1143,08102021,PreComm_Task,None,
75,Stable,6,7,9,4,4,1,-3,5.787011081003584,True,False,False,False,0,0,0.3,0.5000000000000001,True,False,False,15.630851375011844,False,False,True,0,False,False,False,4,1143,08102021,PreComm_Task,None,
76,Stable,60,79,54,85,18,19,6,5.740499399995315,False,True,False,0,0,0,0,0.6000000000000001,0,False,False,0,False,False,False,8.39009823500237,True,False,False,85,1143,08102021,PreComm_Task,None,
77,Stable,57,44,63,38,12,13,6,6.157017848003306,False,True,False,0,0,0,0,0.6000000000000001,0,False,False,0,False,False,False,8.656140292005148,False,True,False,63,1143,08102021,PreComm_Task,None,
78,Stable,30,37,27,40,7,7,3,6.020890293002594,False,True,False,0,0,0,0,0.6000000000000001,0,False,False,0,False,False,False,8.370282380012213,True,False,False,40,1143,08102021,PreComm_Task,None,
79,Stable,69,62,68,63,9,7,-1,6.3644839670014335,False,True,False,0,0,0,0,0.6000000000000001,0,False,False,0,False,False,False,8.415415203009616,False,True,False,68,1143,08102021,PreComm_Task,None,
80,Stable,72,91,75,88,22,19,-3,6.061854696003138,False,True,False,0,0,0,0,0.6000000000000001,0,False,False,0,False,False,False,8.311788222999894,True,False,False,88,1143,08102021,PreComm_Task,None,
81,Stable,69,50,68,51,21,19,-1,6.0010748880013125,False,True,False,0,0,0,0,0.6000000000000001,0,False,False,0,False,False,False,8.351317021006253,False,True,False,68,1143,08102021,PreComm_Task,None,
82,Stable,74,67,80,61,6,7,6,6.128426554001635,False,True,False,0,0,0,0,0.6000000000000001,0,False,False,0,False,False,False,8.428118273004657,False,True,False,80,1143,08102021,PreComm_Task,None,
83,Stable,55,36,56,35,20,19,1,6.064836969002499,False,True,False,0,0,0,0,0.6000000000000001,0,False,False,0,False,False,False,8.364639998006169,False,True,False,56,1143,08102021,PreComm_Task,None,
84,Stable,63,50,57,56,17,13,-6,5.90264557399496,False,True,False,0,0,0,0,0.6000000000000001,0,False,False,0,False,False,False,8.552250327004003,False,True,False,57,1143,08102021,PreComm_Task,None,
85,Stable,37,38,43,32,5,1,-6,6.32457513299596,True,False,False,True,0.5216977849922841,15.52512210700661,0.7,0.6000000000000001,False,True,False,0,False,False,False,0,False,False,False,43,1143,08102021,PreComm_Task,None,
86,Stable,30,37,29,38,8,7,1,5.9677183810126735,False,True,False,0,0,0,0,0.5000000000000001,0,False,False,0,False,False,False,8.367174067010637,True,False,False,38,1143,08102021,PreComm_Task,None,
87,Stable,47,60,44,63,13,13,3,6.263392184002441,False,True,False,0,0,0,0,0.5000000000000001,0,False,False,0,False,False,False,9.068028276000405,True,False,False,63,1143,08102021,PreComm_Task,None,
88,Stable,71,64,65,70,11,7,-6,5.722820542010595,False,True,False,0,0,0,0,0.5000000000000001,0,False,False,0,False,False,False,8.123471887010965,False,True,False,65,1143,08102021,PreComm_Task,None,
89,Stable,44,57,47,54,16,13,-3,5.753672299004393,False,True,False,0,0,0,0,0.5000000000000001,0,False,False,0,False,False,False,8.347926235001069,True,False,False,54,1143,08102021,PreComm_Task,None,
90,Stable,72,79,75,76,10,7,-3,5.965528909990098,False,True,False,0,0,0,0,0.5000000000000001,0,False,False,0,False,False,False,7.86587333198986,True,False,False,76,1143,08102021,PreComm_Task,None,
91,Stable,45,64,51,58,23,19,-6,6.042502786003752,False,True,False,0,0,0,0,0.5000000000000001,0,False,False,0,False,False,False,8.63866316799249,True,False,False,58,1143,08102021,PreComm_Task,None,
92,Stable,40,59,37,62,19,19,3,5.975463295006193,False,True,False,0,0,0,0,0.5000000000000001,0,False,False,0,False,False,False,8.62460917700082,True,False,False,62,1143,08102021,PreComm_Task,None,
93,Stable,34,35,28,41,0,1,6,6.850576020005974,True,False,False,False,0,0,0.9,0.5000000000000001,True,False,False,17.30186692699499,False,False,True,0,False,False,False,41,1143,08102021,PreComm_Task,None,
94,Stable,37,36,38,35,2,1,1,6.402761224002461,True,False,False,True,0.5346588679967681,15.25337837501138,0.3,0.6000000000000001,False,True,False,0,False,False,False,0,False,False,False,38,1143,08102021,PreComm_Task,None,
95,Stable,25,38,24,39,14,13,1,6.06388675000926,False,True,False,0,0,0,0,0.5000000000000001,0,False,False,0,False,False,False,8.465364408999449,True,False,False,39,1143,08102021,PreComm_Task,None,
96,Stable,60,61,61,60,3,1,-1,6.780484943999909,True,False,False,False,0,0,0.2,0.5000000000000001,True,False,False,16.554665068993927,False,False,True,0,False,False,False,60,1143,08102021,PreComm_Task,None,
