TrialNumber,Condition,OptionA,OptionB,EndA,EndB,combination,difference,change,Choice_RT,Choice_Wait,Choice_Commit,Choice_Miss,Press_hit,Play_RT,RT_trialClock_play,ITI_play,Square_timing,Press_miss,Play_win_A,Play_win_B,Late_RT,Play_lost,Play_lost_chosenA,Play_lost_chosenB,Precomm_RT,Precomm_B,Precomm_A,Precomm_miss,Earnings,participant,date,expName,frameRate,
1,Volatile,31,30,15,46,5,1,-16,6.263031673000114,True,False,False,True,0.6375748169998587,15.851087212000039,0.9,0.8,False,False,True,0,False,False,False,0,False,False,False,46,1084,16082021,PreComm_Task,None,
2,Volatile,70,51,57,64,22,19,-13,6.017106737999939,False,True,False,0,0,0,0,0.7000000000000001,0,False,False,0,False,False,False,8.516251550000106,False,True,False,57,1084,16082021,PreComm_Task,None,
3,Volatile,43,24,59,8,18,19,16,5.720406550000007,True,False,False,False,0,0,0.4,0.7000000000000001,True,False,False,15.882043206999924,False,True,False,0,False,False,False,59,1084,16082021,PreComm_Task,None,
4,Volatile,45,26,34,37,21,19,-11,5.955921957999863,True,False,False,True,0.737966970999878,15.505885528000135,0.8,0.8,False,False,True,0,False,False,False,0,False,False,False,37,1084,16082021,PreComm_Task,None,
5,Volatile,39,38,55,22,0,1,16,7.057191281000087,False,True,False,0,0,0,0,0.7000000000000001,0,False,False,0,False,False,False,10.004973797000275,True,False,False,22,1084,16082021,PreComm_Task,None,
6,Volatile,37,38,26,49,2,1,11,6.798077618999741,True,False,False,False,0,0,0.6,0.7000000000000001,True,False,False,17.20339097499982,False,True,False,0,False,False,False,26,1084,16082021,PreComm_Task,None,
7,Volatile,17,24,30,11,10,7,-13,6.346254011999918,True,False,False,True,0.6817345290000958,16.046622077999928,1.0,0.8,False,True,False,0,False,False,False,0,False,False,False,30,1084,16082021,PreComm_Task,None,
8,Volatile,58,51,74,35,6,7,16,5.876048065999839,False,True,False,0,0,0,0,0.7000000000000001,0,False,False,0,False,False,False,8.674882830000115,False,True,False,74,1084,16082021,PreComm_Task,None,
9,Volatile,51,64,35,80,12,13,16,6.066831121999712,False,True,False,0,0,0,0,0.7000000000000001,0,False,False,0,False,False,False,8.566816022999774,True,False,False,80,1084,16082021,PreComm_Task,None,
10,Volatile,75,62,64,73,15,13,-11,5.6286905960000695,False,True,False,0,0,0,0,0.7000000000000001,0,False,False,0,False,False,False,8.376890278999781,False,True,False,64,1084,16082021,PreComm_Task,None,
11,Volatile,54,47,65,36,8,7,11,6.215469415000371,False,True,False,0,0,0,0,0.7000000000000001,0,False,False,0,False,False,False,8.764656642000318,False,True,False,65,1084,16082021,PreComm_Task,None,
12,Volatile,34,47,21,60,13,13,13,5.874046727999939,True,False,False,False,0,0,0.5,0.7000000000000001,True,False,False,16.142545347999658,False,True,False,0,False,False,False,21,1084,16082021,PreComm_Task,None,
13,Volatile,29,42,42,29,16,13,-13,6.464149365999674,True,False,False,False,0,0,0.9,0.8,True,False,False,17.233290748999934,False,True,False,0,False,False,False,42,1084,16082021,PreComm_Task,None,
14,Volatile,35,48,24,59,14,13,11,5.805748907000179,True,False,False,True,0.7983442839999952,15.105884948000039,0.5,0.9,False,False,True,0,False,False,False,0,False,False,False,59,1084,16082021,PreComm_Task,None,
15,Volatile,52,33,65,20,19,19,13,5.853746881999996,False,True,False,0,0,0,0,0.8,0,False,False,0,False,False,False,8.804904583999814,False,True,False,65,1084,16082021,PreComm_Task,None,
16,Volatile,32,31,19,44,4,1,-13,6.13245056300002,True,False,False,False,0,0,0.9,0.8,True,False,False,16.92322097200031,False,False,True,0,False,False,False,44,1084,16082021,PreComm_Task,None,
17,Volatile,23,16,36,3,7,7,13,6.211606088000281,True,False,False,True,0.8716298839999581,16.011354719000337,0.9,0.9,False,True,False,0,False,False,False,0,False,False,False,36,1084,16082021,PreComm_Task,None,
18,Volatile,63,82,52,93,20,19,11,5.825551122999968,False,True,False,0,0,0,0,0.8,0,False,False,0,False,False,False,9.362166854999941,True,False,False,93,1084,16082021,PreComm_Task,None,
19,Volatile,59,58,72,45,1,1,13,5.894389232999856,False,True,False,0,0,0,0,0.8,0,False,False,0,False,False,False,8.746448721999968,False,True,False,72,1084,16082021,PreComm_Task,None,
20,Volatile,25,24,14,35,3,1,-11,5.665242468000088,True,False,False,False,0,0,0.4,0.8,True,False,False,15.933324424000148,False,True,False,0,False,False,False,14,1084,16082021,PreComm_Task,None,
21,Volatile,44,51,60,35,11,7,-16,5.764428829999815,False,True,False,0,0,0,0,0.9,0,False,False,0,False,False,False,8.264301092000096,True,False,False,35,1084,16082021,PreComm_Task,None,
22,Volatile,30,43,46,27,17,13,-16,6.370838188000107,True,False,False,True,0.828581277000012,16.07024124899999,0.8,0.9,False,True,False,0,False,False,False,0,False,False,False,46,1084,16082021,PreComm_Task,None,
23,Volatile,20,39,36,23,23,19,-16,5.654685657999835,True,False,False,False,0,0,0.9,0.8,True,False,False,16.447590648000187,False,False,True,0,False,False,False,23,1084,16082021,PreComm_Task,None,
24,Volatile,62,55,51,66,9,7,-11,6.140457708000213,False,True,False,0,0,0,0,0.9,0,False,False,0,False,False,False,8.888642038999933,False,True,False,51,1084,16082021,PreComm_Task,None,
25,Volatile,38,31,54,15,6,7,16,6.002008998000292,True,False,False,False,0,0,0.4,0.9,True,False,False,16.35194291300013,False,True,False,0,False,False,False,54,1084,16082021,PreComm_Task,None,
26,Volatile,61,80,45,96,18,19,16,5.729822319999585,False,True,False,0,0,0,0,1.0,0,False,False,0,False,False,False,8.381408685999759,True,False,False,96,1084,16082021,PreComm_Task,None,
27,Volatile,66,53,79,40,13,13,13,6.535648295000101,False,True,False,0,0,0,0,1.0,0,False,False,0,False,False,False,9.237893240000176,False,True,False,79,1084,16082021,PreComm_Task,None,
28,Volatile,66,53,77,42,14,13,11,6.1564310009998735,False,True,False,0,0,0,0,1.0,0,False,False,0,False,False,False,8.954467419000139,False,True,False,77,1084,16082021,PreComm_Task,None,
29,Volatile,39,58,26,71,19,19,13,5.9768232960000205,False,True,False,0,0,0,0,1.0,0,False,False,0,False,False,False,9.128672328999983,True,False,False,71,1084,16082021,PreComm_Task,None,
30,Volatile,53,34,64,23,20,19,11,5.943972541000221,False,True,False,0,0,0,0,1.0,0,False,False,0,False,False,False,8.895679823000137,False,True,False,64,1084,16082021,PreComm_Task,None,
31,Volatile,16,35,29,22,22,19,-13,6.208571108000342,True,False,False,True,0.7626074860004337,15.809784676000163,0.8,1.0,False,True,False,0,False,False,False,0,False,False,False,29,1084,16082021,PreComm_Task,None,
32,Volatile,24,23,11,36,4,1,-13,5.65333396799997,True,False,False,False,0,0,0.4,0.9,True,False,False,16.082520340999963,False,True,False,0,False,False,False,11,1084,16082021,PreComm_Task,None,
33,Volatile,64,51,51,64,16,13,-13,5.93794058200001,False,True,False,0,0,0,0,1.0,0,False,False,0,False,False,False,8.545230071999868,False,True,False,51,1084,16082021,PreComm_Task,None,
34,Volatile,59,52,70,41,8,7,11,5.811260555999979,False,True,False,0,0,0,0,1.0,0,False,False,0,False,False,False,8.309935200999917,False,True,False,70,1084,16082021,PreComm_Task,None,
35,Volatile,25,38,41,22,17,13,-16,6.0890635260002455,True,False,False,True,0.7727922789999866,15.888812615999996,1.0,1.0,False,True,False,0,False,False,False,0,False,False,False,41,1084,16082021,PreComm_Task,None,
36,Volatile,61,62,77,46,5,1,-16,6.504064812999786,False,True,False,0,0,0,0,0.9,0,False,False,0,False,False,False,9.15366480199964,True,False,False,46,1084,16082021,PreComm_Task,None,
37,Volatile,59,58,75,42,0,1,16,5.9272740129999875,False,True,False,0,0,0,0,0.9,0,False,False,0,False,False,False,9.026718687999619,False,True,False,75,1084,16082021,PreComm_Task,None,
38,Volatile,34,21,23,32,15,13,-11,6.342635371999677,True,False,False,True,0.8491063720002785,15.945187057999647,0.7,0.9,False,False,True,0,False,False,False,0,False,False,False,32,1084,16082021,PreComm_Task,None,
39,Volatile,38,45,51,32,10,7,-13,6.080288078999729,True,False,False,False,0,0,0.4,0.8,True,False,False,16.382475987999896,False,False,True,0,False,False,False,32,1084,16082021,PreComm_Task,None,
40,Volatile,27,28,16,39,2,1,11,5.754692091999914,True,False,False,True,0.8674498129998938,15.654342427999836,1.0,0.9,False,False,True,0,False,False,False,0,False,False,False,39,1084,16082021,PreComm_Task,None,
41,Volatile,18,17,7,28,3,1,-11,5.818561502000193,True,False,False,False,0,0,0.9,0.8,True,False,False,16.580028167000364,False,True,False,0,False,False,False,7,1084,16082021,PreComm_Task,None,
42,Volatile,34,27,47,14,7,7,13,5.640845708000143,True,False,False,False,0,0,0.2,0.9,True,False,False,15.863044644000183,False,False,True,0,False,False,False,14,1084,16082021,PreComm_Task,None,
43,Volatile,71,52,55,68,23,19,-16,5.567075328000101,False,True,False,0,0,0,0,1.0,0,False,False,0,False,False,False,8.266196374000174,False,True,False,55,1084,16082021,PreComm_Task,None,
44,Volatile,55,56,42,69,1,1,13,5.721074829999907,False,True,False,0,0,0,0,1.0,0,False,False,0,False,False,False,8.573025329999837,True,False,False,69,1084,16082021,PreComm_Task,None,
45,Volatile,47,54,63,38,11,7,-16,5.866670672000055,False,True,False,0,0,0,0,1.0,0,False,False,0,False,False,False,8.470414172000346,True,False,False,38,1084,16082021,PreComm_Task,None,
46,Volatile,60,79,71,68,21,19,-11,5.818135417000121,False,True,False,0,0,0,0,1.0,0,False,False,0,False,False,False,8.416916948000107,True,False,False,68,1084,16082021,PreComm_Task,None,
47,Volatile,53,40,69,24,12,13,16,5.846194259000185,False,True,False,0,0,0,0,1.0,0,False,False,0,False,False,False,8.395528733999981,False,True,False,69,1084,16082021,PreComm_Task,None,
48,Volatile,39,32,28,43,9,7,-11,6.682835038000121,True,False,False,True,0.8178818870001123,16.330345101000148,0.8,1.0,False,False,True,0,False,False,False,0,False,False,False,43,1084,16082021,PreComm_Task,None,
49,Volatile,60,73,44,89,12,13,16,112.17309779900006,False,True,False,0,0,0,0,0.9,0,False,False,0,False,False,False,115.27352762200007,True,False,False,89,1084,16082021,PreComm_Task,None,
50,Volatile,60,61,73,48,4,1,-13,5.879341243999988,False,True,False,0,0,0,0,0.9,0,False,False,0,False,False,False,8.377750738000032,True,False,False,48,1084,16082021,PreComm_Task,None,
51,Volatile,28,27,17,38,3,1,-11,5.793522533999749,True,False,False,True,0.5763905429998886,14.59484109899995,0.2,0.9,False,False,True,0,False,False,False,0,False,False,False,38,1084,16082021,PreComm_Task,None,
52,Volatile,40,27,27,40,16,13,-13,5.847397105999789,True,False,False,True,0.6727884609999819,15.54755069599969,1.0,0.8,False,False,True,0,False,False,False,0,False,False,False,40,1084,16082021,PreComm_Task,None,
53,Volatile,36,29,49,16,7,7,13,5.957453167999574,True,False,False,False,0,0,1.0,0.7000000000000001,True,False,False,16.728289099999984,False,False,True,0,False,False,False,16,1084,16082021,PreComm_Task,None,
54,Volatile,73,54,60,67,22,19,-13,5.952911041999869,True,False,False,True,0.6920383599999695,15.15396495799996,0.5,0.8,False,False,True,0,False,False,False,0,False,False,False,67,1084,16082021,PreComm_Task,None,
55,Volatile,74,61,63,72,15,13,-11,5.748077894000289,False,True,False,0,0,0,0,0.7000000000000001,0,False,False,0,False,False,False,8.948658116999923,False,True,False,63,1084,16082021,PreComm_Task,None,
56,Volatile,62,61,75,48,1,1,13,6.596100353000111,False,True,False,0,0,0,0,0.7000000000000001,0,False,False,0,False,False,False,9.346852206999756,False,True,False,75,1084,16082021,PreComm_Task,None,
57,Volatile,61,54,77,38,6,7,16,6.192272097000114,False,True,False,0,0,0,0,0.7000000000000001,0,False,False,0,False,False,False,8.589328351999939,False,True,False,77,1084,16082021,PreComm_Task,None,
58,Volatile,23,42,34,31,21,19,-11,5.908262550000018,True,False,False,True,0.584709827000097,14.707922293000138,0.2,0.7000000000000001,False,True,False,0,False,False,False,0,False,False,False,34,1084,16082021,PreComm_Task,None,
59,Volatile,75,56,91,40,18,19,16,5.452048347999607,False,True,False,0,0,0,0,0.6000000000000001,0,False,False,0,False,False,False,8.200780248999763,False,True,False,91,1084,16082021,PreComm_Task,None,
60,Volatile,81,62,94,49,19,19,13,5.42903044500008,False,True,False,0,0,0,0,0.6000000000000001,0,False,False,0,False,False,False,7.778826153999944,False,True,False,94,1084,16082021,PreComm_Task,None,
61,Volatile,24,17,35,6,8,7,11,5.7267175510000925,True,False,False,False,0,0,0.2,0.6000000000000001,True,False,False,15.65179395899986,False,False,True,0,False,False,False,6,1084,16082021,PreComm_Task,None,
62,Volatile,29,36,40,25,9,7,-11,5.464715809000154,True,False,False,True,0.223169575999691,14.405767172000196,0.7,0.7000000000000001,False,True,False,0,False,False,False,0,False,False,False,40,1084,16082021,PreComm_Task,None,
63,Volatile,32,31,43,20,2,1,11,5.820204886999818,True,False,False,False,0,0,0.4,0.6000000000000001,True,False,False,15.875102685999991,False,True,False,0,False,False,False,43,1084,16082021,PreComm_Task,None,
64,Volatile,27,28,43,12,5,1,-16,5.981234069000038,True,False,False,True,0.5348257089999606,14.930935399999726,0.4,0.7000000000000001,False,True,False,0,False,False,False,0,False,False,False,43,1084,16082021,PreComm_Task,None,
65,Volatile,25,24,41,8,0,1,16,5.567003447999923,True,False,False,True,0.5466014970002107,14.920641824000086,0.8,0.6000000000000001,False,True,False,0,False,False,False,0,False,False,False,41,1084,16082021,PreComm_Task,None,
66,Volatile,63,82,79,66,23,19,-16,6.009582469000179,False,True,False,0,0,0,0,0.5000000000000001,0,False,False,0,False,False,False,8.209518013999968,True,False,False,66,1084,16082021,PreComm_Task,None,
67,Volatile,62,49,46,65,17,13,-16,5.5079656689999865,False,True,False,0,0,0,0,0.5000000000000001,0,False,False,0,False,False,False,7.854298399000072,False,True,False,46,1084,16082021,PreComm_Task,None,
68,Volatile,40,53,27,66,13,13,13,5.673034705000191,False,True,False,0,0,0,0,0.5000000000000001,0,False,False,0,False,False,False,7.972184560000187,True,False,False,66,1084,16082021,PreComm_Task,None,
69,Volatile,63,56,50,69,10,7,-13,5.5670138779996705,False,True,False,0,0,0,0,0.5000000000000001,0,False,False,0,False,False,False,7.7703340809998735,False,True,False,50,1084,16082021,PreComm_Task,None,
70,Volatile,74,55,85,44,20,19,11,5.413163175000136,False,True,False,0,0,0,0,0.5000000000000001,0,False,False,0,False,False,False,7.8129944289999,False,True,False,85,1084,16082021,PreComm_Task,None,
71,Volatile,68,61,52,77,11,7,-16,6.027657093000016,False,True,False,0,0,0,0,0.5000000000000001,0,False,False,0,False,False,False,8.724548482000046,False,True,False,52,1084,16082021,PreComm_Task,None,
72,Volatile,52,39,63,28,14,13,11,5.951028491000216,False,True,False,0,0,0,0,0.5000000000000001,0,False,False,0,False,False,False,8.201615855,False,True,False,63,1084,16082021,PreComm_Task,None,
73,Volatile,50,51,37,64,1,1,13,5.57657118599991,False,True,False,0,0,0,0,0.5000000000000001,0,False,False,0,False,False,False,8.027693733999968,True,False,False,64,1084,16082021,PreComm_Task,None,
74,Volatile,64,71,53,82,8,7,11,5.644880922000084,False,True,False,0,0,0,0,0.5000000000000001,0,False,False,0,False,False,False,8.194784703000096,True,False,False,82,1084,16082021,PreComm_Task,None,
75,Volatile,41,60,54,47,22,19,-13,6.027333503999671,False,True,False,0,0,0,0,0.5000000000000001,0,False,False,0,False,False,False,9.078218920999916,True,False,False,47,1084,16082021,PreComm_Task,None,
76,Volatile,43,42,27,58,5,1,-16,6.324862190999738,True,False,False,False,0,0,0.4,0.5000000000000001,True,False,False,16.29301921599972,False,True,False,0,False,False,False,27,1084,16082021,PreComm_Task,None,
77,Volatile,19,32,30,21,15,13,-11,6.1402569279998716,True,False,False,False,0,0,0.2,0.6000000000000001,True,False,False,16.010450327999934,False,True,False,0,False,False,False,30,1084,16082021,PreComm_Task,None,
78,Volatile,57,38,68,27,20,19,11,6.258438672000011,False,True,False,0,0,0,0,0.7000000000000001,0,False,False,0,False,False,False,8.758234272999744,False,True,False,68,1084,16082021,PreComm_Task,None,
79,Volatile,26,39,42,23,17,13,-16,5.699575308000021,True,False,False,False,0,0,0.9,0.7000000000000001,True,False,False,16.37133201300003,False,False,True,0,False,False,False,23,1084,16082021,PreComm_Task,None,
80,Volatile,60,47,73,34,13,13,13,5.8697191460000795,False,True,False,0,0,0,0,0.8,0,False,False,0,False,False,False,8.320144230000096,False,True,False,73,1084,16082021,PreComm_Task,None,
81,Volatile,35,36,19,52,0,1,16,5.847172832999604,True,False,False,False,0,0,0.4,0.8,True,False,False,16.160191311999824,False,False,True,0,False,False,False,52,1084,16082021,PreComm_Task,None,
82,Volatile,73,60,89,44,12,13,16,5.9374228019996735,False,True,False,0,0,0,0,0.9,0,False,False,0,False,False,False,8.437942219999968,False,True,False,89,1084,16082021,PreComm_Task,None,
83,Volatile,42,35,29,48,10,7,-13,6.097735561000263,True,False,False,True,0.7662396290002107,15.387161214000116,0.5,0.9,False,False,True,0,False,False,False,0,False,False,False,48,1084,16082021,PreComm_Task,None,
84,Volatile,18,19,29,8,3,1,-11,5.815821314000004,True,False,False,False,0,0,0.7,0.8,True,False,False,16.437476237000283,False,True,False,0,False,False,False,29,1084,16082021,PreComm_Task,None,
85,Volatile,58,51,47,62,9,7,-11,5.849203216000205,False,True,False,0,0,0,0,0.9,0,False,False,0,False,False,False,8.351887182000155,False,True,False,47,1084,16082021,PreComm_Task,None,
86,Volatile,43,24,27,40,23,19,-16,5.930275652999626,True,False,False,True,0.8667053600001964,15.17998153499957,0.4,0.9,False,False,True,0,False,False,False,0,False,False,False,40,1084,16082021,PreComm_Task,None,
87,Volatile,28,47,12,63,18,19,16,6.06666489700001,True,False,False,True,0.5804613639998024,14.967393183999775,0.3,0.8,False,False,True,0,False,False,False,0,False,False,False,63,1084,16082021,PreComm_Task,None,
88,Volatile,49,36,36,49,16,13,-13,6.298135423000076,True,False,False,True,0.6809056170000076,15.949402344000191,0.9,0.7000000000000001,False,False,True,0,False,False,False,0,False,False,False,49,1084,16082021,PreComm_Task,None,
89,Volatile,61,54,74,41,7,7,13,5.822861979999743,False,True,False,0,0,0,0,0.6000000000000001,0,False,False,0,False,False,False,8.474096422000002,False,True,False,74,1084,16082021,PreComm_Task,None,
90,Volatile,18,25,2,41,6,7,16,5.6808760479998455,True,False,False,False,0,0,0.6,0.6000000000000001,True,False,False,15.933449516999644,False,True,False,0,False,False,False,2,1084,16082021,PreComm_Task,None,
91,Volatile,53,52,40,65,4,1,-13,5.878152629999931,False,True,False,0,0,0,0,0.7000000000000001,0,False,False,0,False,False,False,8.375374555000235,False,True,False,40,1084,16082021,PreComm_Task,None,
92,Volatile,47,46,58,35,2,1,11,5.895323451999957,True,False,False,True,0.5705538699999124,14.94286197800011,0.4,0.7000000000000001,False,False,False,16.096620949000226,False,False,True,0,False,False,False,35,1084,16082021,PreComm_Task,None,
93,Volatile,52,71,39,84,19,19,13,5.471588228000201,False,True,False,0,0,0,0,0.8,0,False,False,0,False,False,False,8.0208014130003,True,False,False,84,1084,16082021,PreComm_Task,None,
94,Volatile,63,70,79,54,11,7,-16,5.830224366000039,False,True,False,0,0,0,0,0.8,0,False,False,0,False,False,False,8.280190999000297,True,False,False,54,1084,16082021,PreComm_Task,None,
95,Volatile,36,17,25,28,21,19,-11,5.6063966179999625,True,False,False,True,0.7303067879997798,15.05894951900018,0.7,0.8,False,False,True,0,False,False,False,0,False,False,False,28,1084,16082021,PreComm_Task,None,
96,Volatile,37,50,26,61,14,13,11,6.044571365000138,False,True,False,0,0,0,0,0.7000000000000001,0,False,False,0,False,False,False,8.492103889000191,True,False,False,61,1084,16082021,PreComm_Task,None,
