TrialNumber,Condition,OptionA,OptionB,EndA,EndB,combination,difference,change,Choice_RT,Choice_Wait,Choice_Commit,Choice_Miss,Press_hit,Play_RT,RT_trialClock_play,ITI_play,Square_timing,Press_miss,Play_win_A,Play_win_B,Late_RT,Play_lost,Play_lost_chosenA,Play_lost_chosenB,Precomm_RT,Precomm_B,Precomm_A,Precomm_miss,Earnings,participant,date,expName,frameRate,
1,Volatile,39,26,52,13,13,13,13,6.154339123,True,False,False,True,0.6095192379999617,14.84926924399997,0.2,0.8,False,True,False,0,False,False,False,0,False,False,False,52,1186,01122021,PreComm_Task,None,
2,Volatile,53,72,42,83,20,19,11,6.1906802989999505,False,True,False,0,0,0,0,0.7000000000000001,0,False,False,0,False,False,False,8.841640280999968,True,False,False,83,1186,01122021,PreComm_Task,None,
3,Volatile,36,49,20,65,12,13,16,6.150627392000047,True,False,False,False,0,0,0.5,0.7000000000000001,True,False,False,16.269564840000044,False,True,False,0,False,False,False,20,1186,01122021,PreComm_Task,None,
4,Volatile,37,24,21,40,17,13,-16,6.994332670999938,False,True,False,0,0,0,0,0.8,0,False,False,0,False,False,False,9.594598159999919,False,True,False,21,1186,01122021,PreComm_Task,None,
5,Volatile,16,23,5,34,8,7,11,6.280042371000036,True,False,False,True,0.6009567890000653,15.081743218000042,0.3,0.8,False,False,True,0,False,False,False,0,False,False,False,34,1186,01122021,PreComm_Task,None,
6,Volatile,71,52,87,36,18,19,16,8.262507045999996,False,False,True,0,0,0,0,0.7000000000000001,0,False,True,0,False,False,False,0,False,False,False,0,1186,01122021,PreComm_Task,None,
7,Volatile,45,44,34,55,3,1,-11,6.4842151030001105,False,True,False,0,0,0,0,0.7000000000000001,0,False,False,0,False,False,False,8.633118839000076,True,False,False,55,1186,01122021,PreComm_Task,None,
8,Volatile,34,21,45,10,14,13,11,6.050539883999932,True,False,False,True,0.44388320699999895,14.699445128999969,0.3,0.7000000000000001,False,True,False,0,False,False,False,0,False,False,False,45,1186,01122021,PreComm_Task,None,
9,Volatile,48,41,32,57,11,7,-16,5.941353229000015,True,False,False,True,0.5993362579999939,14.840507994999939,0.4,0.6000000000000001,False,False,True,0,False,False,False,0,False,False,False,57,1186,01122021,PreComm_Task,None,
10,Volatile,50,57,61,46,9,7,-11,7.095311225000046,False,True,False,0,0,0,0,0.5000000000000001,0,False,False,0,False,False,False,9.395004421000067,False,True,False,61,1186,01122021,PreComm_Task,None,
11,Volatile,63,50,50,63,16,13,-13,8.033287690000066,False,True,False,0,0,0,0,0.5000000000000001,0,False,False,0,False,False,False,10.583329700000036,False,True,False,50,1186,01122021,PreComm_Task,None,
12,Volatile,16,17,3,30,1,1,13,6.082146497000053,True,False,False,False,0,0,0.5,0.5000000000000001,True,False,False,16.013962321999998,False,True,False,0,False,False,False,3,1186,01122021,PreComm_Task,None,
13,Volatile,41,28,30,39,15,13,-11,6.837792378000017,False,True,False,0,0,0,0,0.6000000000000001,0,False,False,0,False,False,False,9.23649499999999,True,False,False,39,1186,01122021,PreComm_Task,None,
14,Volatile,74,55,58,71,23,19,-16,6.901208087999976,False,True,False,0,0,0,0,0.6000000000000001,0,False,False,0,False,False,False,10.251211474000002,False,True,False,58,1186,01122021,PreComm_Task,None,
15,Volatile,70,63,57,76,10,7,-13,6.835479233000001,False,True,False,0,0,0,0,0.6000000000000001,0,False,False,0,False,False,False,8.933535782000035,True,False,False,76,1186,01122021,PreComm_Task,None,
16,Volatile,81,62,70,73,21,19,-11,6.145299589000047,False,True,False,0,0,0,0,0.6000000000000001,0,False,False,0,False,False,False,8.595152376999977,True,False,False,73,1186,01122021,PreComm_Task,None,
17,Volatile,80,61,93,48,19,19,13,8.199486355999966,False,True,False,0,0,0,0,0.6000000000000001,0,False,False,0,False,False,False,10.299053473000072,False,True,False,93,1186,01122021,PreComm_Task,None,
18,Volatile,42,23,29,36,22,19,-13,6.428092123999932,False,True,False,0,0,0,0,0.6000000000000001,0,False,False,0,False,False,False,8.727678224999977,True,False,False,36,1186,01122021,PreComm_Task,None,
19,Volatile,32,31,43,20,2,1,11,7.341215159999933,False,True,False,0,0,0,0,0.6000000000000001,0,False,False,0,False,False,False,10.390428912999937,False,True,False,43,1186,01122021,PreComm_Task,None,
20,Volatile,30,31,46,15,5,1,-16,8.130453675000012,False,True,False,0,0,0,0,0.6000000000000001,0,False,False,0,False,False,False,10.68053815799999,False,True,False,46,1186,01122021,PreComm_Task,None,
21,Volatile,46,45,62,29,0,1,16,7.676751460999981,False,True,False,0,0,0,0,0.6000000000000001,0,False,False,0,False,False,False,10.027528415000006,True,False,False,29,1186,01122021,PreComm_Task,None,
22,Volatile,30,37,17,50,7,7,13,6.353952399000036,True,False,False,True,0.49918853500003024,15.653071551000039,0.9,0.6000000000000001,False,False,True,0,False,False,False,0,False,False,False,50,1186,01122021,PreComm_Task,None,
23,Volatile,34,33,21,46,4,1,-13,5.942654682000011,True,False,False,False,0,0,0.3,0.5000000000000001,True,False,False,15.658591367999975,False,True,False,0,False,False,False,21,1186,01122021,PreComm_Task,None,
24,Volatile,39,46,23,62,6,7,16,7.54365919199995,True,False,False,True,0.5559534989999975,16.193755893000116,0.2,0.6000000000000001,False,False,True,0,False,False,False,0,False,False,False,62,1186,01122021,PreComm_Task,None,
25,Volatile,61,80,50,91,20,19,11,6.695969466000179,False,True,False,0,0,0,0,0.5000000000000001,0,False,False,0,False,False,False,9.194717443000172,False,True,False,50,1186,01122021,PreComm_Task,None,
26,Volatile,38,57,51,44,22,19,-13,7.5807694340001035,False,True,False,0,0,0,0,0.5000000000000001,0,False,False,0,False,False,False,10.130471244000091,False,True,False,51,1186,01122021,PreComm_Task,None,
27,Volatile,44,31,28,47,17,13,-16,6.4260098409999955,True,False,False,False,0,0,0.8,0.5000000000000001,True,False,False,16.649070560999917,False,True,False,0,False,False,False,28,1186,01122021,PreComm_Task,None,
28,Volatile,63,62,52,73,3,1,-11,7.4376638730000195,True,False,False,True,0.5075672489999761,16.038453452000113,0.2,0.6000000000000001,False,False,True,0,False,False,False,0,False,False,False,73,1186,01122021,PreComm_Task,None,
29,Volatile,53,72,40,85,19,19,13,7.846888755000009,False,True,False,0,0,0,0,0.5000000000000001,0,False,False,0,False,False,False,10.797433275000003,True,False,False,85,1186,01122021,PreComm_Task,None,
30,Volatile,19,26,32,13,10,7,-13,5.999027683000122,True,False,False,False,0,0,1.0,0.5000000000000001,True,False,False,16.431715290000056,False,False,True,0,False,False,False,13,1186,01122021,PreComm_Task,None,
31,Volatile,62,81,78,65,23,19,-16,7.295403831000158,False,True,False,0,0,0,0,0.6000000000000001,0,False,False,0,False,False,False,9.494384468000135,False,True,False,78,1186,01122021,PreComm_Task,None,
32,Volatile,16,17,0,33,0,1,16,5.873979683000016,True,False,False,False,0,0,0.9,0.6000000000000001,True,False,False,16.29401729999995,False,True,False,0,False,False,False,0,1186,01122021,PreComm_Task,None,
33,Volatile,35,28,19,44,11,7,-16,5.64778430399997,True,False,False,True,0.6134228500000063,14.447385947000157,0.3,0.7000000000000001,False,False,True,0,False,False,False,0,False,False,False,44,1186,01122021,PreComm_Task,None,
34,Volatile,55,48,66,37,8,7,11,8.168415450999873,False,False,True,0,0,0,0,0.6000000000000001,0,False,True,0,False,False,False,0,False,False,False,0,1186,01122021,PreComm_Task,None,
35,Volatile,61,48,74,35,13,13,13,6.783938628999977,False,True,False,0,0,0,0,0.6000000000000001,0,False,False,0,False,False,False,8.883874526,True,False,False,35,1186,01122021,PreComm_Task,None,
36,Volatile,38,51,49,40,15,13,-11,6.25215887100012,False,True,False,0,0,0,0,0.6000000000000001,0,False,False,0,False,False,False,8.552264140000034,False,True,False,49,1186,01122021,PreComm_Task,None,
37,Volatile,18,17,5,30,4,1,-13,5.721800694999956,True,False,False,True,0.5115257350000775,14.722255509999968,0.6,0.6000000000000001,False,False,True,0,False,False,False,0,False,False,False,30,1186,01122021,PreComm_Task,None,
38,Volatile,30,17,46,1,12,13,16,7.984612934000097,False,True,False,0,0,0,0,0.5000000000000001,0,False,False,0,False,False,False,10.084622234000108,False,True,False,46,1186,01122021,PreComm_Task,None,
39,Volatile,54,47,70,31,6,7,16,5.938163933999931,True,False,False,False,0,0,0.5,0.5000000000000001,True,False,False,15.857769915000063,False,False,True,0,False,False,False,31,1186,01122021,PreComm_Task,None,
40,Volatile,44,63,28,79,18,19,16,7.03995556599989,False,True,False,0,0,0,0,0.6000000000000001,0,False,False,0,False,False,False,9.839695587999813,False,True,False,28,1186,01122021,PreComm_Task,None,
41,Volatile,43,50,54,39,9,7,-11,6.429580768000051,True,False,False,False,0,0,0.7,0.6000000000000001,True,False,False,16.664965917000018,False,False,True,0,False,False,False,39,1186,01122021,PreComm_Task,None,
42,Volatile,26,33,13,46,7,7,13,6.6833059909999974,False,True,False,0,0,0,0,0.7000000000000001,0,False,False,0,False,False,False,9.082933107999906,True,False,False,46,1186,01122021,PreComm_Task,None,
43,Volatile,45,44,56,33,2,1,11,6.156929638000065,False,True,False,0,0,0,0,0.7000000000000001,0,False,False,0,False,False,False,8.456520116000092,True,False,False,33,1186,01122021,PreComm_Task,None,
44,Volatile,34,35,50,19,5,1,-16,6.689164320999907,False,True,False,0,0,0,0,0.7000000000000001,0,False,False,0,False,False,False,9.439882668999871,True,False,False,19,1186,01122021,PreComm_Task,None,
45,Volatile,29,16,16,29,16,13,-13,6.343158917999972,True,False,False,False,0,0,0.2,0.7000000000000001,True,False,False,16.1713134229999,False,False,True,0,False,False,False,29,1186,01122021,PreComm_Task,None,
46,Volatile,40,59,51,48,21,19,-11,6.2917285140001695,False,True,False,0,0,0,0,0.8,0,False,False,0,False,False,False,8.54110261599999,True,False,False,48,1186,01122021,PreComm_Task,None,
47,Volatile,61,62,48,75,1,1,13,6.197683759000029,False,True,False,0,0,0,0,0.8,0,False,False,0,False,False,False,8.496298003999982,False,True,False,48,1186,01122021,PreComm_Task,None,
48,Volatile,56,69,45,80,14,13,11,6.472910872000057,False,True,False,0,0,0,0,0.8,0,False,False,0,False,False,False,8.823345606999965,False,True,False,45,1186,01122021,PreComm_Task,None,
49,Volatile,20,33,31,22,15,13,-11,27.77795094299995,False,True,False,0,0,0,0,0.8,0,False,False,0,False,False,False,30.528104830000075,True,False,False,22,1186,01122021,PreComm_Task,None,
50,Volatile,23,36,12,47,14,13,11,6.748111649000066,True,False,False,True,0.7504580429999805,15.999321177000184,0.6,0.8,False,False,True,0,False,False,False,0,False,False,False,47,1186,01122021,PreComm_Task,None,
51,Volatile,54,53,65,42,2,1,11,6.490479054999923,False,True,False,0,0,0,0,0.7000000000000001,0,False,False,0,False,False,False,10.088932525000018,True,False,False,42,1186,01122021,PreComm_Task,None,
52,Volatile,32,31,16,47,5,1,-16,6.002575987,True,False,False,True,0.552691970000069,15.352499322000085,0.9,0.7000000000000001,False,False,True,0,False,False,False,0,False,False,False,47,1186,01122021,PreComm_Task,None,
53,Volatile,52,59,36,75,6,7,16,6.995084361000181,False,True,False,0,0,0,0,0.6000000000000001,0,False,False,0,False,False,False,9.644527758000095,False,True,False,36,1186,01122021,PreComm_Task,None,
54,Volatile,49,50,62,37,4,1,-13,7.271612792000042,False,True,False,0,0,0,0,0.6000000000000001,0,False,False,0,False,False,False,9.420367853000016,False,True,False,62,1186,01122021,PreComm_Task,None,
55,Volatile,41,22,30,33,21,19,-11,5.932175853999979,False,True,False,0,0,0,0,0.6000000000000001,0,False,False,0,False,False,False,9.031777828000031,False,True,False,30,1186,01122021,PreComm_Task,None,
56,Volatile,53,40,69,24,12,13,16,7.186794468000016,True,False,False,False,0,0,0.3,0.6000000000000001,True,False,False,17.028620507999904,False,False,True,0,False,False,False,24,1186,01122021,PreComm_Task,None,
57,Volatile,70,57,54,73,17,13,-16,6.374222433999876,False,True,False,0,0,0,0,0.7000000000000001,0,False,False,0,False,False,False,9.223219795999967,False,True,False,54,1186,01122021,PreComm_Task,None,
58,Volatile,57,50,41,66,11,7,-16,6.674103309999964,False,True,False,0,0,0,0,0.7000000000000001,0,False,False,0,False,False,False,9.172949434999964,True,False,False,66,1186,01122021,PreComm_Task,None,
59,Volatile,52,33,39,46,22,19,-13,6.642714143000148,True,False,False,True,0.6170718729999862,15.543256606000114,0.4,0.7000000000000001,False,False,True,0,False,False,False,0,False,False,False,46,1186,01122021,PreComm_Task,None,
60,Volatile,24,31,35,20,9,7,-11,5.9974044230000345,True,False,False,True,0.509535182000036,15.296273220000103,0.9,0.6000000000000001,False,True,False,0,False,False,False,0,False,False,False,35,1186,01122021,PreComm_Task,None,
61,Volatile,67,48,51,64,23,19,-16,6.099765067999897,False,True,False,0,0,0,0,0.5000000000000001,0,False,False,0,False,False,False,8.348808154999915,False,True,False,51,1186,01122021,PreComm_Task,None,
62,Volatile,46,45,35,56,3,1,-11,6.030608548000146,False,True,False,0,0,0,0,0.5000000000000001,0,False,False,0,False,False,False,7.6307419290001235,False,True,False,35,1186,01122021,PreComm_Task,None,
63,Volatile,47,40,60,27,7,7,13,6.371558461999939,False,True,False,0,0,0,0,0.5000000000000001,0,False,False,0,False,False,False,9.520948377999957,False,True,False,60,1186,01122021,PreComm_Task,None,
64,Volatile,64,83,51,96,19,19,13,7.376190582999925,False,True,False,0,0,0,0,0.5000000000000001,0,False,False,0,False,False,False,9.427493643999924,False,True,False,51,1186,01122021,PreComm_Task,None,
65,Volatile,20,21,4,37,0,1,16,5.931493162000152,True,False,False,False,0,0,0.9,0.5000000000000001,True,False,False,16.25165636199995,False,True,False,0,False,False,False,4,1186,01122021,PreComm_Task,None,
66,Volatile,63,50,76,37,13,13,13,6.995397308999827,False,True,False,0,0,0,0,0.6000000000000001,0,False,False,0,False,False,False,9.395237999999836,True,False,False,37,1186,01122021,PreComm_Task,None,
67,Volatile,58,71,71,58,16,13,-13,7.85199561200011,False,True,False,0,0,0,0,0.6000000000000001,0,False,False,0,False,False,False,10.551817152000012,True,False,False,58,1186,01122021,PreComm_Task,None,
68,Volatile,76,57,87,46,20,19,11,7.250012827000091,False,True,False,0,0,0,0,0.6000000000000001,0,False,False,0,False,False,False,9.94961469000009,True,False,False,46,1186,01122021,PreComm_Task,None,
69,Volatile,28,27,41,14,1,1,13,5.797046293999983,True,False,False,False,0,0,0.4,0.6000000000000001,True,False,False,15.716632656999991,False,True,False,0,False,False,False,41,1186,01122021,PreComm_Task,None,
70,Volatile,72,53,88,37,18,19,16,6.495955421999952,False,True,False,0,0,0,0,0.7000000000000001,0,False,False,0,False,False,False,8.446069073999979,False,True,False,88,1186,01122021,PreComm_Task,None,
71,Volatile,57,64,46,75,8,7,11,6.737473124999951,False,True,False,0,0,0,0,0.7000000000000001,0,False,False,0,False,False,False,8.83785527100008,True,False,False,75,1186,01122021,PreComm_Task,None,
72,Volatile,42,49,55,36,10,7,-13,5.749629659999982,True,False,False,False,0,0,0.6,0.7000000000000001,True,False,False,15.968298125000047,False,True,False,0,False,False,False,55,1186,01122021,PreComm_Task,None,
73,Volatile,37,50,26,61,14,13,11,6.414033977999907,False,True,False,0,0,0,0,0.8,0,False,False,0,False,False,False,8.51376716599998,True,False,False,61,1186,01122021,PreComm_Task,None,
74,Volatile,61,54,74,41,7,7,13,7.645312804000014,False,True,False,0,0,0,0,0.8,0,False,False,0,False,False,False,10.144991065000113,False,True,False,74,1186,01122021,PreComm_Task,None,
75,Volatile,32,19,21,30,15,13,-11,6.023538287999827,True,False,False,True,0.5432271680001577,15.274589175999836,0.8,0.8,False,False,True,0,False,False,False,0,False,False,False,30,1186,01122021,PreComm_Task,None,
76,Volatile,44,63,28,79,18,19,16,6.54899161000003,False,True,False,0,0,0,0,0.7000000000000001,0,False,False,0,False,False,False,8.698352956999997,True,False,False,79,1186,01122021,PreComm_Task,None,
77,Volatile,27,28,14,41,1,1,13,5.552953355999989,True,False,False,True,0.46521408800003883,14.90294076500004,1.0,0.7000000000000001,False,False,True,0,False,False,False,0,False,False,False,41,1186,01122021,PreComm_Task,None,
78,Volatile,52,33,65,20,19,19,13,6.54658629100004,False,True,False,0,0,0,0,0.6000000000000001,0,False,False,0,False,False,False,8.746461023999927,False,True,False,65,1186,01122021,PreComm_Task,None,
79,Volatile,21,28,10,39,8,7,11,5.724656149999873,True,False,False,True,0.557804552999869,14.875382431999924,0.7,0.6000000000000001,False,False,True,0,False,False,False,0,False,False,False,39,1186,01122021,PreComm_Task,None,
80,Volatile,62,63,73,52,3,1,-11,6.698917053000059,False,True,False,0,0,0,0,0.5000000000000001,0,False,False,0,False,False,False,8.948409729000105,True,False,False,52,1186,01122021,PreComm_Task,None,
81,Volatile,59,46,72,33,13,13,13,5.847769420999839,False,True,False,0,0,0,0,0.5000000000000001,0,False,False,0,False,False,False,7.997320326999898,True,False,False,33,1186,01122021,PreComm_Task,None,
82,Volatile,49,68,62,55,22,19,-13,6.295135711000057,False,True,False,0,0,0,0,0.5000000000000001,0,False,False,0,False,False,False,8.745352082999943,True,False,False,55,1186,01122021,PreComm_Task,None,
83,Volatile,52,51,39,64,4,1,-13,6.499097591000009,False,True,False,0,0,0,0,0.5000000000000001,0,False,False,0,False,False,False,8.948424894999789,True,False,False,64,1186,01122021,PreComm_Task,None,
84,Volatile,39,52,23,68,12,13,16,6.797183163999762,False,True,False,0,0,0,0,0.5000000000000001,0,False,False,0,False,False,False,8.898018058999696,True,False,False,68,1186,01122021,PreComm_Task,None,
85,Volatile,38,51,54,35,17,13,-16,6.498707677000311,False,True,False,0,0,0,0,0.5000000000000001,0,False,False,0,False,False,False,8.94887004200018,True,False,False,35,1186,01122021,PreComm_Task,None,
86,Volatile,32,51,43,40,21,19,-11,7.402107455999612,False,True,False,0,0,0,0,0.5000000000000001,0,False,False,0,False,False,False,9.502662424999926,True,False,False,40,1186,01122021,PreComm_Task,None,
87,Volatile,59,58,43,74,5,1,-16,6.001181269999961,False,True,False,0,0,0,0,0.5000000000000001,0,False,False,0,False,False,False,8.200584201999845,False,True,False,43,1186,01122021,PreComm_Task,None,
88,Volatile,73,54,57,70,23,19,-16,5.974883630000022,False,True,False,0,0,0,0,0.5000000000000001,0,False,False,0,False,False,False,8.275107173999913,False,True,False,57,1186,01122021,PreComm_Task,None,
89,Volatile,62,75,75,62,16,13,-13,5.72539664299984,False,True,False,0,0,0,0,0.5000000000000001,0,False,False,0,False,False,False,8.276752819000194,True,False,False,62,1186,01122021,PreComm_Task,None,
90,Volatile,37,36,48,25,2,1,11,5.643493897999633,True,False,False,False,0,0,1.0,0.5000000000000001,True,False,False,16.078805519999605,False,True,False,0,False,False,False,48,1186,01122021,PreComm_Task,None,
91,Volatile,56,37,67,26,20,19,11,5.831029620999743,False,True,False,0,0,0,0,0.6000000000000001,0,False,False,0,False,False,False,8.380438022999897,False,True,False,67,1186,01122021,PreComm_Task,None,
92,Volatile,33,40,17,56,6,7,16,6.631035560999862,True,False,False,True,0.5006041120000191,15.831266173999666,0.8,0.6000000000000001,False,False,True,0,False,False,False,0,False,False,False,56,1186,01122021,PreComm_Task,None,
93,Volatile,36,43,47,32,9,7,-11,7.193569214000036,False,True,False,0,0,0,0,0.5000000000000001,0,False,False,0,False,False,False,9.643318233000173,True,False,False,32,1186,01122021,PreComm_Task,None,
94,Volatile,33,26,20,39,10,7,-13,5.747121620000144,True,False,False,False,0,0,0.4,0.5000000000000001,True,False,False,15.569506542999989,False,True,False,0,False,False,False,20,1186,01122021,PreComm_Task,None,
95,Volatile,44,51,60,35,11,7,-16,6.435992565000106,False,True,False,0,0,0,0,0.6000000000000001,0,False,False,0,False,False,False,9.084431195999969,False,True,False,60,1186,01122021,PreComm_Task,None,
96,Volatile,57,58,41,74,0,1,16,6.477723593000064,False,True,False,0,0,0,0,0.6000000000000001,0,False,False,0,False,False,False,8.827091003000078,True,False,False,74,1186,01122021,PreComm_Task,None,
