TrialNumber,Condition,OptionA,OptionB,EndA,EndB,combination,difference,change,Choice_RT,Choice_Wait,Choice_Commit,Choice_Miss,Press_hit,Play_RT,RT_trialClock_play,ITI_play,Square_timing,Press_miss,Play_win_A,Play_win_B,Late_RT,Play_lost,Play_lost_chosenA,Play_lost_chosenB,Precomm_RT,Precomm_B,Precomm_A,Precomm_miss,Earnings,participant,date,expName,frameRate,
1,Volatile,45,32,58,19,13,13,13,8.367077315000640,FALSE,FALSE,TRUE,0,0,0,0,0.8,0,FALSE,FALSE,0,FALSE,FALSE,FALSE,0,FALSE,FALSE,FALSE,0,1088,17082021,PreComm_Task,None,
2,Volatile,35,28,51,12,6,7,16,6.665068923000040,FALSE,TRUE,FALSE,0,0,0,0,0.8,0,FALSE,FALSE,0,FALSE,FALSE,FALSE,9.957897569999660,FALSE,TRUE,FALSE,51,1088,17082021,PreComm_Task,None,
3,Volatile,36,35,52,19,0,1,16,7.887178676000080,TRUE,FALSE,FALSE,FALSE,0,0,1.0,0.8,TRUE,FALSE,FALSE,18.757779774000500,FALSE,TRUE,FALSE,0,FALSE,FALSE,FALSE,52,1088,17082021,PreComm_Task,None,
4,Volatile,33,26,17,42,11,7,-16,8.251665439000140,TRUE,FALSE,FALSE,FALSE,0,0,0.3,0.9,TRUE,FALSE,FALSE,18.55680991400000,FALSE,TRUE,FALSE,0,FALSE,FALSE,FALSE,17,1088,17082021,PreComm_Task,None,
5,Volatile,20,27,7,40,7,7,13,6.408851567000060,FALSE,TRUE,FALSE,0,0,0,0,1.0,0,FALSE,FALSE,0,FALSE,FALSE,FALSE,9.157436299000440,TRUE,FALSE,FALSE,40,1088,17082021,PreComm_Task,None,
6,Volatile,74,55,85,44,20,19,11,7.737469291999330,FALSE,TRUE,FALSE,0,0,0,0,1.0,0,FALSE,FALSE,0,FALSE,FALSE,FALSE,9.83784854699934,FALSE,TRUE,FALSE,85,1088,17082021,PreComm_Task,None,
7,Volatile,33,26,20,39,10,7,-13,6.055424416999810,FALSE,TRUE,FALSE,0,0,0,0,1.0,0,FALSE,FALSE,0,FALSE,FALSE,FALSE,9.704850233999420,FALSE,TRUE,FALSE,20,1088,17082021,PreComm_Task,None,
8,Volatile,25,44,38,31,22,19,-13,6.650132378999840,TRUE,FALSE,FALSE,TRUE,0.9611368420000870,16.291883938000000,0.6,1.0,FALSE,FALSE,FALSE,17.359014814999700,FALSE,TRUE,FALSE,0,FALSE,FALSE,FALSE,38,1088,17082021,PreComm_Task,None,
9,Volatile,35,22,46,11,14,13,11,6.7240162220005,TRUE,FALSE,FALSE,FALSE,0,0,0.3,1.1,TRUE,FALSE,FALSE,17.23070075099990,FALSE,TRUE,FALSE,0,FALSE,FALSE,FALSE,46,1088,17082021,PreComm_Task,None,
10,Volatile,17,36,28,25,21,19,-11,7.342289516000160,FALSE,TRUE,FALSE,0,0,0,0,1.2000000000000000,0,FALSE,FALSE,0,FALSE,FALSE,FALSE,10.841265050999900,TRUE,FALSE,FALSE,25,1088,17082021,PreComm_Task,None,
11,Volatile,65,46,81,30,18,19,16,7.336902492999800,FALSE,TRUE,FALSE,0,0,0,0,1.2000000000000000,0,FALSE,FALSE,0,FALSE,FALSE,FALSE,11.90809716900000,FALSE,FALSE,TRUE,0,1088,17082021,PreComm_Task,None,
12,Volatile,44,43,55,32,2,1,11,6.286314938000030,FALSE,TRUE,FALSE,0,0,0,0,1.2000000000000000,0,FALSE,FALSE,0,FALSE,FALSE,FALSE,8.935703695000480,TRUE,FALSE,FALSE,32,1088,17082021,PreComm_Task,None,
13,Volatile,45,52,34,63,8,7,11,6.871072886000550,FALSE,TRUE,FALSE,0,0,0,0,1.2000000000000000,0,FALSE,FALSE,0,FALSE,FALSE,FALSE,10.271257543000500,TRUE,FALSE,FALSE,63,1088,17082021,PreComm_Task,None,
14,Volatile,34,33,47,20,1,1,13,6.652874006000280,TRUE,FALSE,FALSE,TRUE,1.0122458699997900,16.305475172000100,0.6,1.2000000000000000,FALSE,TRUE,FALSE,0,FALSE,FALSE,FALSE,0,FALSE,FALSE,FALSE,47,1088,17082021,PreComm_Task,None,
15,Volatile,17,36,33,20,23,19,-16,6.7609024679995900,TRUE,FALSE,FALSE,FALSE,0,0,1.0,1.1,TRUE,FALSE,FALSE,17.95658609199930,FALSE,FALSE,TRUE,0,FALSE,FALSE,FALSE,20,1088,17082021,PreComm_Task,None,
16,Volatile,56,57,72,41,5,1,-16,6.879712508000010,FALSE,TRUE,FALSE,0,0,0,0,1.2000000000000000,0,FALSE,FALSE,0,FALSE,FALSE,FALSE,10.27930722200020,TRUE,FALSE,FALSE,41,1088,17082021,PreComm_Task,None,
17,Volatile,25,18,14,29,9,7,-11,7.5285439460003500,TRUE,FALSE,FALSE,TRUE,1.0778121090006600,17.038706179000700,0.4,1.2000000000000000,FALSE,FALSE,TRUE,0,FALSE,FALSE,FALSE,0,FALSE,FALSE,FALSE,29,1088,17082021,PreComm_Task,None,
18,Volatile,54,41,38,57,17,13,-16,8.426397088000160,FALSE,FALSE,TRUE,0,0,0,0,1.1,0,FALSE,TRUE,0,FALSE,FALSE,FALSE,0,FALSE,FALSE,FALSE,0,1088,17082021,PreComm_Task,None,
19,Volatile,63,64,74,53,3,1,-11,6.827923234999620,TRUE,FALSE,FALSE,FALSE,0,0,0.4,1.1,TRUE,FALSE,FALSE,17.478222169999800,FALSE,FALSE,TRUE,0,FALSE,FALSE,FALSE,53,1088,17082021,PreComm_Task,None,
20,Volatile,43,44,56,31,4,1,-13,8.087609290999350,FALSE,TRUE,FALSE,0,0,0,0,1.2000000000000000,0,FALSE,FALSE,0,FALSE,FALSE,FALSE,11.438559696999600,TRUE,FALSE,FALSE,31,1088,17082021,PreComm_Task,None,
21,Volatile,49,36,36,49,16,13,-13,7.424044617000620,FALSE,TRUE,FALSE,0,0,0,0,1.2000000000000000,0,FALSE,FALSE,0,FALSE,FALSE,FALSE,9.624205804000670,FALSE,TRUE,FALSE,36,1088,17082021,PreComm_Task,None,
22,Volatile,35,22,51,6,12,13,16,6.5973303780001500,TRUE,FALSE,FALSE,FALSE,0,0,0.4,1.2000000000000000,TRUE,FALSE,FALSE,17.30175010200040,FALSE,FALSE,TRUE,0,FALSE,FALSE,FALSE,6,1088,17082021,PreComm_Task,None,
23,Volatile,40,27,29,38,15,13,-11,7.891961885000460,TRUE,FALSE,FALSE,TRUE,1.0766694190006100,17.98614382100000,1.0,1.3000000000000000,FALSE,FALSE,TRUE,0,FALSE,FALSE,FALSE,0,FALSE,FALSE,FALSE,38,1088,17082021,PreComm_Task,None,
24,Volatile,56,75,43,88,19,19,13,8.190575404999440,FALSE,TRUE,FALSE,0,0,0,0,1.2000000000000000,0,FALSE,FALSE,0,FALSE,FALSE,FALSE,12.752706055999600,FALSE,FALSE,TRUE,0,1088,17082021,PreComm_Task,None,
25,Volatile,71,64,82,53,8,7,11,8.491827609000210,FALSE,FALSE,TRUE,0,0,0,0,1.2000000000000000,0,FALSE,FALSE,0,FALSE,FALSE,FALSE,0,FALSE,FALSE,TRUE,0,1088,17082021,PreComm_Task,None,
26,Volatile,63,50,47,66,17,13,-16,6.321076143999560,TRUE,FALSE,FALSE,TRUE,1.1573276770004700,16.22162568799920,0.7,1.2000000000000000,FALSE,FALSE,TRUE,0,FALSE,FALSE,FALSE,0,FALSE,FALSE,FALSE,66,1088,17082021,PreComm_Task,None,
27,Volatile,25,24,36,13,2,1,11,6.920918698000610,TRUE,FALSE,FALSE,FALSE,0,0,0.5,1.1,TRUE,FALSE,FALSE,17.60487371200000,FALSE,FALSE,TRUE,0,FALSE,FALSE,FALSE,13,1088,17082021,PreComm_Task,None,
28,Volatile,64,65,77,52,4,1,-13,7.776297395000260,FALSE,TRUE,FALSE,0,0,0,0,1.2000000000000000,0,FALSE,FALSE,0,FALSE,FALSE,FALSE,11.073410983999600,TRUE,FALSE,FALSE,52,1088,17082021,PreComm_Task,None,
29,Volatile,36,49,25,60,14,13,11,6.975601136000480,TRUE,FALSE,FALSE,TRUE,0.9765236190005450,16.67685850000000,0.7,1.2000000000000000,FALSE,FALSE,TRUE,0,FALSE,FALSE,FALSE,0,FALSE,FALSE,FALSE,60,1088,17082021,PreComm_Task,None,
30,Volatile,18,31,5,44,13,13,13,6.831604559999510,TRUE,FALSE,FALSE,TRUE,0.9970425299998170,16.731786235000100,0.9,1.1,FALSE,FALSE,TRUE,0,FALSE,FALSE,FALSE,0,FALSE,FALSE,FALSE,44,1088,17082021,PreComm_Task,None,
31,Volatile,60,59,76,43,0,1,16,7.912952028000290,FALSE,TRUE,FALSE,0,0,0,0,1.0,0,FALSE,FALSE,0,FALSE,FALSE,FALSE,11.216497769000900,FALSE,TRUE,FALSE,76,1088,17082021,PreComm_Task,None,
32,Volatile,48,61,32,77,12,13,16,6.651202741999440,FALSE,TRUE,FALSE,0,0,0,0,1.0,0,FALSE,FALSE,0,FALSE,FALSE,FALSE,10.001411100000000,TRUE,FALSE,FALSE,77,1088,17082021,PreComm_Task,None,
33,Volatile,46,39,35,50,9,7,-11,6.534346835999710,TRUE,FALSE,FALSE,FALSE,0,0,0.9,1.0,TRUE,FALSE,FALSE,17.50307139600050,FALSE,FALSE,TRUE,0,FALSE,FALSE,FALSE,50,1088,17082021,PreComm_Task,None,
34,Volatile,68,49,52,65,23,19,-16,7.049311558000230,FALSE,TRUE,FALSE,0,0,0,0,1.1,0,FALSE,FALSE,0,FALSE,FALSE,FALSE,10.398769925999700,FALSE,TRUE,FALSE,52,1088,17082021,PreComm_Task,None,
35,Volatile,53,46,40,59,10,7,-13,6.678158459999400,FALSE,TRUE,FALSE,0,0,0,0,1.1,0,FALSE,FALSE,0,FALSE,FALSE,FALSE,10.027227411999800,FALSE,TRUE,FALSE,40,1088,17082021,PreComm_Task,None,
36,Volatile,34,53,21,66,19,19,13,6.835701807000080,TRUE,FALSE,FALSE,FALSE,0,0,0.4,1.1,TRUE,FALSE,FALSE,17.42723257599940,FALSE,TRUE,FALSE,0,FALSE,FALSE,FALSE,21,1088,17082021,PreComm_Task,None,
37,Volatile,76,57,65,68,21,19,-11,7.497966348999400,FALSE,TRUE,FALSE,0,0,0,0,1.2000000000000000,0,FALSE,FALSE,0,FALSE,FALSE,FALSE,9.940789902999310,FALSE,TRUE,FALSE,65,1088,17082021,PreComm_Task,None,
38,Volatile,80,61,91,50,20,19,11,6.944936455999600,TRUE,FALSE,FALSE,TRUE,1.0659821750005000,16.496456197999600,0.5,1.2000000000000000,FALSE,TRUE,FALSE,0,FALSE,FALSE,FALSE,0,FALSE,FALSE,FALSE,91,1088,17082021,PreComm_Task,None,
39,Volatile,33,34,20,47,1,1,13,6.775041699000210,TRUE,FALSE,FALSE,TRUE,0.9710781349995160,16.330292142000000,0.6,1.1,FALSE,FALSE,TRUE,0,FALSE,FALSE,FALSE,0,FALSE,FALSE,FALSE,47,1088,17082021,PreComm_Task,None,
40,Volatile,52,65,65,52,16,13,-13,6.5449849529995800,FALSE,TRUE,FALSE,0,0,0,0,1.0,0,FALSE,FALSE,0,FALSE,FALSE,FALSE,9.341982035999540,TRUE,FALSE,FALSE,52,1088,17082021,PreComm_Task,None,
41,Volatile,52,71,65,58,22,19,-13,6.914457756000050,FALSE,TRUE,FALSE,0,0,0,0,1.0,0,FALSE,FALSE,0,FALSE,FALSE,FALSE,10.414761425000500,TRUE,FALSE,FALSE,58,1088,17082021,PreComm_Task,None,
42,Volatile,64,83,48,99,18,19,16,6.317061054999610,TRUE,FALSE,FALSE,FALSE,0,0,0.7,1.0,TRUE,FALSE,FALSE,17.06342304000010,FALSE,FALSE,TRUE,0,FALSE,FALSE,FALSE,99,1088,17082021,PreComm_Task,None,
43,Volatile,31,30,15,46,5,1,-16,5.840168231000460,TRUE,FALSE,FALSE,FALSE,0,0,1.0,1.1,TRUE,FALSE,FALSE,16.980114370000600,FALSE,FALSE,TRUE,0,FALSE,FALSE,FALSE,46,1088,17082021,PreComm_Task,None,
44,Volatile,35,48,46,37,15,13,-11,6.387505548999800,TRUE,FALSE,FALSE,TRUE,0.8693273099997900,15.940769810999900,0.7,1.2000000000000000,FALSE,TRUE,FALSE,0,FALSE,FALSE,FALSE,0,FALSE,FALSE,FALSE,46,1088,17082021,PreComm_Task,None,
45,Volatile,38,31,22,47,11,7,-16,6.396887672000050,TRUE,FALSE,FALSE,FALSE,0,0,0.8,1.1,TRUE,FALSE,FALSE,17.34495624200010,FALSE,FALSE,TRUE,0,FALSE,FALSE,FALSE,47,1088,17082021,PreComm_Task,None,
46,Volatile,27,20,43,4,6,7,16,7.467720575000390,TRUE,FALSE,FALSE,FALSE,0,0,0.4,1.2000000000000000,TRUE,FALSE,FALSE,18.135908621000500,FALSE,TRUE,FALSE,0,FALSE,FALSE,FALSE,43,1088,17082021,PreComm_Task,None,
47,Volatile,34,35,45,24,3,1,-11,6.318013751000760,TRUE,FALSE,FALSE,TRUE,1.023447780999960,15.86848010200080,0.5,1.3000000000000000,FALSE,TRUE,FALSE,0,FALSE,FALSE,FALSE,0,FALSE,FALSE,FALSE,45,1088,17082021,PreComm_Task,None,
48,Volatile,32,25,45,12,7,7,13,7.7459722920002600,TRUE,FALSE,FALSE,FALSE,0,0,0.5,1.2000000000000000,TRUE,FALSE,FALSE,18.545256311999800,FALSE,TRUE,FALSE,0,FALSE,FALSE,FALSE,45,1088,17082021,PreComm_Task,None,
49,Volatile,42,43,53,32,3,1,-11,16.4864131559998,FALSE,FALSE,TRUE,0,0,0,0,1.3000000000000000,0,FALSE,FALSE,0,FALSE,FALSE,FALSE,0,FALSE,FALSE,FALSE,0,1088,17082021,PreComm_Task,None,
50,Volatile,23,30,39,14,11,7,-16,6.660260566000030,FALSE,TRUE,FALSE,0,0,0,0,1.3000000000000000,0,FALSE,FALSE,0,FALSE,FALSE,FALSE,9.308478212999940,TRUE,FALSE,FALSE,14,1088,17082021,PreComm_Task,None,
51,Volatile,51,38,38,51,16,13,-13,6.138750453999820,TRUE,FALSE,FALSE,TRUE,0.8984875890000690,16.034657395000100,1.0,1.3000000000000000,FALSE,FALSE,TRUE,0,FALSE,FALSE,FALSE,0,FALSE,FALSE,FALSE,51,1088,17082021,PreComm_Task,None,
52,Volatile,35,36,24,47,2,1,11,7.355778120999280,TRUE,FALSE,FALSE,TRUE,0.804015654000068,16.563506186999800,0.4,1.2000000000000000,FALSE,FALSE,FALSE,0,FALSE,FALSE,FALSE,0,FALSE,FALSE,FALSE,0,1088,17082021,PreComm_Task,None,
53,Volatile,21,22,5,38,0,1,16,6.7142963639998900,TRUE,FALSE,FALSE,FALSE,0,0,0.3,1.1,TRUE,FALSE,FALSE,17.173458696000100,FALSE,FALSE,TRUE,0,FALSE,FALSE,FALSE,38,1088,17082021,PreComm_Task,None,
54,Volatile,65,46,76,35,20,19,11,6.379722673999820,TRUE,FALSE,FALSE,TRUE,0.8187442759999610,16.183420625000500,1.0,1.2000000000000000,FALSE,TRUE,FALSE,0,FALSE,FALSE,FALSE,0,FALSE,FALSE,FALSE,76,1088,17082021,PreComm_Task,None,
55,Volatile,52,59,36,75,6,7,16,6.7909976000000800,TRUE,FALSE,FALSE,FALSE,0,0,0.8,1.1,TRUE,FALSE,FALSE,17.765663718000700,FALSE,FALSE,TRUE,0,FALSE,FALSE,FALSE,75,1088,17082021,PreComm_Task,None,
56,Volatile,64,51,77,38,13,13,13,0,TRUE,FALSE,FALSE,FALSE,0,0,0,1.2000000000000000,FALSE,FALSE,FALSE,0,FALSE,FALSE,FALSE,0,FALSE,FALSE,FALSE,75,1088,17082021,PreComm_Task,None,
57,Volatile,63,56,52,67,9,7,-11,6.047765559000250,TRUE,FALSE,FALSE,TRUE,0.9449717190000230,15.799478668999700,0.7,1.2000000000000000,FALSE,FALSE,TRUE,0,FALSE,FALSE,FALSE,0,FALSE,FALSE,FALSE,67,1088,17082021,PreComm_Task,None,
58,Volatile,48,49,64,33,5,1,-16,7.4544376419999000,TRUE,FALSE,FALSE,FALSE,0,0,0.4,1.1,TRUE,FALSE,FALSE,18.048066340999900,FALSE,FALSE,TRUE,0,FALSE,FALSE,FALSE,33,1088,17082021,PreComm_Task,None,
59,Volatile,44,37,31,50,10,7,-13,7.27998566199949,FALSE,TRUE,FALSE,0,0,0,0,1.2000000000000000,0,FALSE,FALSE,0,FALSE,FALSE,FALSE,11.868526256000200,FALSE,FALSE,TRUE,0,1088,17082021,PreComm_Task,None,
60,Volatile,30,49,41,38,21,19,-11,6.317648915999600,TRUE,FALSE,FALSE,TRUE,0.7124209519997750,15.568276195999700,0.5,1.2000000000000000,FALSE,FALSE,TRUE,0,FALSE,FALSE,FALSE,0,FALSE,FALSE,FALSE,38,1088,17082021,PreComm_Task,None,
61,Volatile,44,57,55,46,15,13,-11,6.9978158650001200,TRUE,FALSE,FALSE,TRUE,0.6765460520000490,16.40008189999940,0.7,1.1,FALSE,FALSE,FALSE,0,FALSE,FALSE,FALSE,0,FALSE,FALSE,FALSE,0,1088,17082021,PreComm_Task,None,
62,Volatile,38,19,54,3,18,19,16,7.478725838000170,TRUE,FALSE,FALSE,FALSE,0,0,1.0,1.0,TRUE,FALSE,FALSE,18.532663325000600,FALSE,TRUE,FALSE,0,FALSE,FALSE,FALSE,54,1088,17082021,PreComm_Task,None,
63,Volatile,82,63,69,76,22,19,-13,5.83764084699942,TRUE,FALSE,FALSE,TRUE,0.8363318529991380,15.440021887999100,0.7,1.1,FALSE,FALSE,TRUE,0,FALSE,FALSE,FALSE,0,FALSE,FALSE,FALSE,76,1088,17082021,PreComm_Task,None,
64,Volatile,43,42,30,55,4,1,-13,7.055786089998950,TRUE,FALSE,FALSE,TRUE,0.4156121409996560,16.19880374799870,0.7,0.8,FALSE,FALSE,TRUE,0,FALSE,FALSE,FALSE,0,FALSE,FALSE,FALSE,55,1088,17082021,PreComm_Task,None,
65,Volatile,35,22,22,35,16,13,-13,8.375323543999910,FALSE,FALSE,TRUE,0,0,0,0,0.7000000000000000,0,FALSE,TRUE,0,FALSE,FALSE,FALSE,0,FALSE,FALSE,FALSE,0,1088,17082021,PreComm_Task,None,
66,Volatile,57,76,44,89,19,19,13,6.023440124999980,TRUE,FALSE,FALSE,FALSE,0,0,0.2,0.7000000000000000,TRUE,FALSE,FALSE,15.968295565000500,FALSE,FALSE,TRUE,0,FALSE,FALSE,FALSE,89,1088,17082021,PreComm_Task,None,
67,Volatile,28,41,17,52,14,13,11,5.956550363000130,TRUE,FALSE,FALSE,FALSE,0,0,0.8,0.8,TRUE,FALSE,FALSE,16.60345720499940,FALSE,FALSE,TRUE,0,FALSE,FALSE,FALSE,52,1088,17082021,PreComm_Task,None,
68,Volatile,56,57,43,70,1,1,13,7.558223549000100,TRUE,FALSE,FALSE,FALSE,0,0,0.4,0.9,TRUE,FALSE,FALSE,17.925626318001400,FALSE,TRUE,FALSE,0,FALSE,FALSE,FALSE,43,1088,17082021,PreComm_Task,None,
69,Volatile,24,17,40,1,6,7,16,6.089277924000270,TRUE,FALSE,FALSE,FALSE,0,0,0.8,1.0,TRUE,FALSE,FALSE,16.93616130100050,FALSE,TRUE,FALSE,0,FALSE,FALSE,FALSE,40,1088,17082021,PreComm_Task,None,
70,Volatile,58,57,74,41,0,1,16,5.762001634999250,TRUE,FALSE,FALSE,FALSE,0,0,0.2,1.1,TRUE,FALSE,FALSE,16.121235905000500,FALSE,TRUE,FALSE,0,FALSE,FALSE,FALSE,74,1088,17082021,PreComm_Task,None,
71,Volatile,62,63,73,52,3,1,-11,6.823902641999670,TRUE,FALSE,FALSE,FALSE,0,0,0.7,1.2000000000000000,TRUE,FALSE,FALSE,17.794279836000000,FALSE,FALSE,TRUE,0,FALSE,FALSE,FALSE,52,1088,17082021,PreComm_Task,None,
72,Volatile,16,29,0,45,12,13,16,6.015464531999900,TRUE,FALSE,FALSE,FALSE,0,0,0.3,1.3000000000000000,TRUE,FALSE,FALSE,16.721950167000600,FALSE,TRUE,FALSE,0,FALSE,FALSE,FALSE,0,1088,17082021,PreComm_Task,None,
73,Volatile,30,49,14,65,18,19,16,5.8341885400004700,TRUE,FALSE,FALSE,TRUE,1.2165871360011800,15.435980610000100,0.4,1.4000000000000000,FALSE,FALSE,TRUE,0,FALSE,FALSE,FALSE,0,FALSE,FALSE,FALSE,65,1088,17082021,PreComm_Task,None,
74,Volatile,48,41,59,30,8,7,11,7.063005467998660,TRUE,FALSE,FALSE,TRUE,1.0559839369998400,16.46408601499930,0.3,1.3000000000000000,FALSE,TRUE,FALSE,0,FALSE,FALSE,FALSE,0,FALSE,FALSE,FALSE,59,1088,17082021,PreComm_Task,None,
75,Volatile,38,57,49,46,21,19,-11,6.82165076199999,TRUE,FALSE,FALSE,TRUE,1.0745102079999900,16.823450670001000,0.9,1.2000000000000000,FALSE,TRUE,FALSE,0,FALSE,FALSE,FALSE,0,FALSE,FALSE,FALSE,49,1088,17082021,PreComm_Task,None,
76,Volatile,45,58,32,71,13,13,13,6.066952924000360,TRUE,FALSE,FALSE,TRUE,0.8996642940001040,15.971146931000500,1.0,1.1,FALSE,FALSE,FALSE,0,FALSE,FALSE,FALSE,0,FALSE,FALSE,FALSE,0,1088,17082021,PreComm_Task,None,
77,Volatile,39,46,50,35,9,7,-11,6.487321264999990,TRUE,FALSE,FALSE,FALSE,0,0,0.2,1.0,TRUE,FALSE,FALSE,16.74990325000000,FALSE,FALSE,TRUE,0,FALSE,FALSE,FALSE,35,1088,17082021,PreComm_Task,None,
78,Volatile,40,21,27,34,22,19,-13,5.835798912999960,TRUE,FALSE,FALSE,TRUE,0.8321611510000370,15.187436239999400,0.5,1.1,FALSE,FALSE,TRUE,0,FALSE,FALSE,FALSE,0,FALSE,FALSE,FALSE,34,1088,17082021,PreComm_Task,None,
79,Volatile,38,25,27,36,15,13,-11,6.514377561999940,TRUE,FALSE,FALSE,TRUE,0.694315517999712,16.215865834001300,1.0,1.0,FALSE,FALSE,TRUE,0,FALSE,FALSE,FALSE,0,FALSE,FALSE,FALSE,36,1088,17082021,PreComm_Task,None,
80,Volatile,39,40,55,24,5,1,-16,5.875091494999650,TRUE,FALSE,FALSE,TRUE,0.7410667179992740,15.427106769000600,0.8,0.9,FALSE,FALSE,FALSE,0,FALSE,FALSE,FALSE,0,FALSE,FALSE,FALSE,0,1088,17082021,PreComm_Task,None,
81,Volatile,30,17,14,33,17,13,-16,8.348469582999310,FALSE,FALSE,TRUE,0,0,0,0,0.8,0,FALSE,FALSE,0,FALSE,FALSE,FALSE,0,FALSE,FALSE,FALSE,0,1088,17082021,PreComm_Task,None,
82,Volatile,35,42,48,29,10,7,-13,8.301319161999350,FALSE,FALSE,TRUE,0,0,0,0,0.8,0,FALSE,FALSE,0,FALSE,FALSE,FALSE,0,FALSE,FALSE,FALSE,0,1088,17082021,PreComm_Task,None,
83,Volatile,62,81,78,65,23,19,-16,4.6212669420001500,TRUE,FALSE,FALSE,FALSE,0,0,0.9,0.8,TRUE,FALSE,FALSE,15.387443666999400,FALSE,FALSE,TRUE,0,FALSE,FALSE,FALSE,65,1088,17082021,PreComm_Task,None,
84,Volatile,18,25,34,9,11,7,-16,6.789464022000180,TRUE,FALSE,FALSE,TRUE,0.7684112059996550,16.44108423600120,0.9,0.9,FALSE,TRUE,FALSE,0,FALSE,FALSE,FALSE,0,FALSE,FALSE,FALSE,34,1088,17082021,PreComm_Task,None,
85,Volatile,70,63,83,50,7,7,13,6.251528310998770,TRUE,FALSE,FALSE,FALSE,0,0,1.0,0.8,TRUE,FALSE,FALSE,17.135359203999500,FALSE,TRUE,FALSE,0,FALSE,FALSE,FALSE,83,1088,17082021,PreComm_Task,None,
86,Volatile,58,77,47,88,20,19,11,6.5564793729990900,TRUE,FALSE,FALSE,FALSE,0,0,0.3,0.9,TRUE,FALSE,FALSE,16.816571236000500,FALSE,TRUE,FALSE,0,FALSE,FALSE,FALSE,47,1088,17082021,PreComm_Task,None,
87,Volatile,39,38,50,27,2,1,11,5.664301859000260,TRUE,FALSE,FALSE,TRUE,0.7645598220005920,15.416239784999600,1.0,1.0,FALSE,TRUE,FALSE,0,FALSE,FALSE,FALSE,0,FALSE,FALSE,FALSE,50,1088,17082021,PreComm_Task,None,
88,Volatile,54,61,67,48,10,7,-13,7.312504293000530,TRUE,FALSE,FALSE,FALSE,0,0,0.9,0.9,TRUE,FALSE,FALSE,18.17332278700090,FALSE,TRUE,FALSE,0,FALSE,FALSE,FALSE,67,1088,17082021,PreComm_Task,None,
89,Volatile,37,56,50,43,22,19,-13,5.6706431719994700,TRUE,FALSE,FALSE,TRUE,0.8782638000011500,14.870290992999800,0.3,1.0,FALSE,TRUE,FALSE,0,FALSE,FALSE,FALSE,0,FALSE,FALSE,FALSE,50,1088,17082021,PreComm_Task,None,
90,Volatile,50,57,37,70,7,7,13,5.924893379000420,TRUE,FALSE,FALSE,FALSE,0,0,0.7,0.9,TRUE,FALSE,FALSE,16.573564151000000,FALSE,FALSE,TRUE,0,FALSE,FALSE,FALSE,70,1088,17082021,PreComm_Task,None,
91,Volatile,48,35,32,51,17,13,-16,5.827980021998880,TRUE,FALSE,FALSE,FALSE,0,0,0.9,1.0,TRUE,FALSE,FALSE,16.824107247999600,FALSE,TRUE,FALSE,0,FALSE,FALSE,FALSE,32,1088,17082021,PreComm_Task,None,
92,Volatile,32,45,19,58,13,13,13,5.9646808769994100,TRUE,FALSE,FALSE,TRUE,0.9706078839990370,15.168590377999900,0.2,1.1,FALSE,FALSE,TRUE,0,FALSE,FALSE,FALSE,0,FALSE,FALSE,FALSE,58,1088,17082021,PreComm_Task,None,
93,Volatile,42,23,31,34,21,19,-11,6.822947262000530,TRUE,FALSE,FALSE,FALSE,0,0,0.5,1.0,TRUE,FALSE,FALSE,17.397386413000300,FALSE,FALSE,TRUE,0,FALSE,FALSE,FALSE,34,1088,17082021,PreComm_Task,None,
94,Volatile,46,33,33,46,16,13,-13,5.6123696220001900,TRUE,FALSE,FALSE,TRUE,0.8240419159992600,15.114669900998700,0.7,1.1,FALSE,FALSE,TRUE,0,FALSE,FALSE,FALSE,0,FALSE,FALSE,FALSE,46,1088,17082021,PreComm_Task,None,
95,Volatile,32,31,16,47,5,1,-16,5.82506092299991,TRUE,FALSE,FALSE,FALSE,0,0,0.4,1.0,TRUE,FALSE,FALSE,16.278862049001000,FALSE,FALSE,TRUE,0,FALSE,FALSE,FALSE,47,1088,17082021,PreComm_Task,None,
96,Volatile,50,63,39,74,14,13,11,6.248759018999410,TRUE,FALSE,FALSE,TRUE,0.6479717720012560,15.59989173699980,0.7,1.1,FALSE,FALSE,TRUE,0,FALSE,FALSE,FALSE,0,FALSE,FALSE,FALSE,74,1088,17082021,PreComm_Task,None,