TrialNumber,Condition,OptionA,OptionB,EndA,EndB,combination,difference,change,Choice_RT,Choice_Wait,Choice_Commit,Choice_Miss,Press_hit,Play_RT,RT_trialClock_play,ITI_play,Square_timing,Press_miss,Play_win_A,Play_win_B,Late_RT,Play_lost,Play_lost_chosenA,Play_lost_chosenB,Precomm_RT,Precomm_B,Precomm_A,Precomm_miss,Earnings,participant,date,expName,frameRate,
1,Volatile,63,70,74,59,9,7,-11,8.206944961999852,False,False,True,0,0,0,0,0.8,0,False,False,0,False,False,False,0,False,False,False,0,1166,08112021,PreComm_Task,60.069740127301316,
2,Volatile,56,49,43,62,10,7,-13,8.042199075000099,True,False,False,False,0,0,0.3,0.8,True,False,False,18.068989927000075,False,True,False,0,False,False,False,43,1166,08112021,PreComm_Task,60.069740127301316,
3,Volatile,42,41,29,54,4,1,-13,8.290124053,False,False,True,0,0,0,0,0.9,0,False,False,0,False,False,False,0,False,False,False,0,1166,08112021,PreComm_Task,60.069740127301316,
4,Volatile,58,65,45,78,7,7,13,8.269453826000017,False,False,True,0,0,0,0,0.9,0,False,False,0,False,False,False,0,False,False,False,0,1166,08112021,PreComm_Task,60.069740127301316,
5,Volatile,17,30,1,46,12,13,16,6.7935464409999895,False,True,False,0,0,0,0,0.9,0,False,False,0,False,False,False,9.89343880399997,True,False,False,46,1166,08112021,PreComm_Task,60.069740127301316,
6,Volatile,56,49,72,33,6,7,16,8.238858725,False,False,True,0,0,0,0,0.9,0,False,False,0,False,False,False,0,True,False,False,0,1166,08112021,PreComm_Task,60.069740127301316,
7,Volatile,29,48,13,64,18,19,16,7.403308104999951,False,True,False,0,0,0,0,0.9,0,False,False,0,False,False,False,10.703802543999927,True,False,False,64,1166,08112021,PreComm_Task,60.069740127301316,
8,Volatile,25,26,41,10,5,1,-16,7.948131392999812,True,False,False,False,0,0,1.0,0.9,True,False,False,18.79392815799997,False,False,True,0,False,False,False,10,1166,08112021,PreComm_Task,60.069740127301316,
9,Volatile,48,35,35,48,16,13,-13,8.191051649999963,False,True,False,0,0,0,0,1.0,0,False,False,0,False,False,False,11.79091921500003,False,True,False,35,1166,08112021,PreComm_Task,60.069740127301316,
10,Volatile,44,63,60,47,23,19,-16,7.028633959999979,False,True,False,0,0,0,0,1.0,0,False,False,0,False,False,False,10.027273198999865,True,False,False,47,1166,08112021,PreComm_Task,60.069740127301316,
11,Volatile,57,58,44,71,1,1,13,8.38826837900001,False,False,True,0,0,0,0,1.0,0,False,False,0,False,False,False,0,True,False,False,0,1166,08112021,PreComm_Task,60.069740127301316,
12,Volatile,57,38,46,49,21,19,-11,7.512660056999948,False,True,False,0,0,0,0,1.0,0,False,False,0,False,False,False,9.962805224000022,False,True,False,46,1166,08112021,PreComm_Task,60.069740127301316,
13,Volatile,54,53,43,64,3,1,-11,7.030545667000069,True,False,False,False,0,0,0.8,1.0,True,False,False,17.767956365999908,False,True,False,0,False,False,False,43,1166,08112021,PreComm_Task,60.069740127301316,
14,Volatile,46,65,59,52,22,19,-13,6.747301646000096,False,True,False,0,0,0,0,1.1,0,False,False,0,False,False,False,10.546657331999995,True,False,False,52,1166,08112021,PreComm_Task,60.069740127301316,
15,Volatile,70,63,81,52,8,7,11,7.493404651999981,True,False,False,False,0,0,0.2,1.1,True,False,False,17.725050106000026,False,False,True,0,False,False,False,52,1166,08112021,PreComm_Task,60.069740127301316,
16,Volatile,53,34,64,23,20,19,11,7.259639105999895,True,False,False,False,0,0,0.9,1.2000000000000002,True,False,False,18.293973682999876,False,False,True,0,False,False,False,23,1166,08112021,PreComm_Task,60.069740127301316,
17,Volatile,18,25,34,9,11,7,-16,8.054184193000083,False,True,False,0,0,0,0,1.3000000000000003,0,False,False,0,False,False,False,11.455347237000069,True,False,False,9,1166,08112021,PreComm_Task,60.069740127301316,
18,Volatile,48,49,37,60,2,1,11,7.052630763000025,False,True,False,0,0,0,0,1.3000000000000003,0,False,False,0,False,False,False,9.202085141999987,False,True,False,37,1166,08112021,PreComm_Task,60.069740127301316,
19,Volatile,26,27,10,43,0,1,16,7.98406934899981,True,False,False,False,0,0,0.3,1.3000000000000003,True,False,False,18.512693247999778,False,False,True,0,False,False,False,43,1166,08112021,PreComm_Task,60.069740127301316,
20,Volatile,45,58,32,71,13,13,13,7.5163265769999725,False,True,False,0,0,0,0,1.4000000000000004,0,False,False,0,False,False,False,10.81669098500015,True,False,False,71,1166,08112021,PreComm_Task,60.069740127301316,
21,Volatile,35,48,24,59,14,13,11,8.133599511000057,True,False,False,True,1.3889298179999514,17.93447328000002,0.5,1.4000000000000004,False,False,True,0,False,False,False,0,False,False,False,59,1166,08112021,PreComm_Task,60.069740127301316,
22,Volatile,21,34,37,18,17,13,-16,8.250012187000038,False,False,True,0,0,0,0,1.3000000000000003,0,False,True,0,False,False,False,0,False,False,False,0,1166,08112021,PreComm_Task,60.069740127301316,
23,Volatile,81,62,94,49,19,19,13,8.284793846999946,False,False,True,0,0,0,0,1.3000000000000003,0,False,True,0,False,False,False,0,False,False,False,0,1166,08112021,PreComm_Task,60.069740127301316,
24,Volatile,22,35,33,24,15,13,-11,8.187497671999836,False,False,True,0,0,0,0,1.3000000000000003,0,False,True,0,False,False,False,0,False,False,False,0,1166,08112021,PreComm_Task,60.069740127301316,
25,Volatile,38,31,22,47,11,7,-16,8.058990958999857,False,True,False,0,0,0,0,1.3000000000000003,0,False,False,0,False,False,False,11.158042404999833,False,True,False,22,1166,08112021,PreComm_Task,60.069740127301316,
26,Volatile,23,36,12,47,14,13,11,8.172938441000042,False,True,False,0,0,0,0,1.3000000000000003,0,False,False,0,False,False,False,11.022300654999981,True,False,False,47,1166,08112021,PreComm_Task,60.069740127301316,
27,Volatile,56,69,43,82,13,13,13,7.994951810999737,True,False,False,False,0,0,0.7,1.3000000000000003,True,False,False,18.926709171999846,False,True,False,0,False,False,False,43,1166,08112021,PreComm_Task,60.069740127301316,
28,Volatile,55,36,68,23,19,19,13,7.044839522000075,True,False,False,True,1.3027345680002327,16.644935396000164,0.4,1.4000000000000004,False,True,False,0,False,False,False,0,False,False,False,68,1166,08112021,PreComm_Task,60.069740127301316,
29,Volatile,17,18,28,7,3,1,-11,7.696785194999848,False,True,False,0,0,0,0,1.3000000000000003,0,False,False,0,False,False,False,10.247220498999923,False,True,False,28,1166,08112021,PreComm_Task,60.069740127301316,
30,Volatile,48,41,59,30,8,7,11,8.174892989,True,False,False,False,0,0,0.6,1.3000000000000003,True,False,False,19.0135373789999,False,True,False,0,False,False,False,59,1166,08112021,PreComm_Task,60.069740127301316,
31,Volatile,65,64,81,48,0,1,16,7.575333989999763,False,True,False,0,0,0,0,1.4000000000000004,0,False,False,0,False,False,False,10.524456094000016,True,False,False,48,1166,08112021,PreComm_Task,60.069740127301316,
32,Volatile,54,73,43,84,20,19,11,7.944248637000328,False,True,False,0,0,0,0,1.4000000000000004,0,False,False,0,False,False,False,11.343921644000147,True,False,False,84,1166,08112021,PreComm_Task,60.069740127301316,
33,Volatile,64,65,53,76,2,1,11,7.441800301999592,False,True,False,0,0,0,0,1.4000000000000004,0,False,False,0,False,False,False,10.141460434999772,False,True,False,53,1166,08112021,PreComm_Task,60.069740127301316,
34,Volatile,64,77,77,64,16,13,-13,6.885267613999986,False,True,False,0,0,0,0,1.4000000000000004,0,False,False,0,False,False,False,10.335185673000069,True,False,False,64,1166,08112021,PreComm_Task,60.069740127301316,
35,Volatile,49,62,60,51,15,13,-11,7.8974678670001595,True,False,False,False,0,0,0.4,1.4000000000000004,True,False,False,18.63576276899994,False,False,True,0,False,False,False,51,1166,08112021,PreComm_Task,60.069740127301316,
36,Volatile,30,23,43,10,7,7,13,7.280399676999878,True,False,False,False,0,0,0.2,1.5000000000000004,True,False,False,17.910608844999842,False,True,False,0,False,False,False,43,1166,08112021,PreComm_Task,60.069740127301316,
37,Volatile,35,42,19,58,6,7,16,8.214705368000068,False,False,True,0,0,0,0,1.6000000000000005,0,False,False,0,False,False,False,0,False,False,False,0,1166,08112021,PreComm_Task,60.069740127301316,
38,Volatile,42,61,58,45,23,19,-16,7.173827013999926,False,True,False,0,0,0,0,1.6000000000000005,0,False,False,0,False,False,False,9.522195822999947,True,False,False,45,1166,08112021,PreComm_Task,60.069740127301316,
39,Volatile,22,29,33,18,9,7,-11,7.2881276130001424,True,False,False,False,0,0,0.3,1.6000000000000005,True,False,False,18.11564045499972,False,False,True,0,False,False,False,18,1166,08112021,PreComm_Task,60.069740127301316,
40,Volatile,38,19,27,30,21,19,-11,7.74928245800038,True,False,False,True,0.5833570830000099,17.14831655700027,0.9,1.7000000000000006,False,False,True,0,False,False,False,0,False,False,False,30,1166,08112021,PreComm_Task,60.069740127301316,
41,Volatile,36,43,49,30,10,7,-13,7.946151684000142,True,False,False,False,0,0,0.8,1.6000000000000005,True,False,False,19.277786384000137,False,True,False,0,False,False,False,49,1166,08112021,PreComm_Task,60.069740127301316,
42,Volatile,49,30,36,43,22,19,-13,7.536747944000126,False,True,False,0,0,0,0,1.7000000000000006,0,False,False,0,False,False,False,10.38762960799977,False,True,False,36,1166,08112021,PreComm_Task,60.069740127301316,
43,Volatile,64,65,51,78,1,1,13,7.729291419000219,True,False,False,False,0,0,0.7,1.7000000000000006,True,False,False,19.06386756000029,False,True,False,0,False,False,False,51,1166,08112021,PreComm_Task,60.069740127301316,
44,Volatile,38,19,54,3,18,19,16,7.286289473999659,False,True,False,0,0,0,0,1.8000000000000007,0,False,False,0,False,False,False,10.585814415999721,False,True,False,54,1166,08112021,PreComm_Task,60.069740127301316,
45,Volatile,31,32,47,16,5,1,-16,7.231466463999823,False,True,False,0,0,0,0,1.8000000000000007,0,False,False,0,False,False,False,9.831406334999883,False,True,False,47,1166,08112021,PreComm_Task,60.069740127301316,
46,Volatile,39,38,26,51,4,1,-13,8.406416523000189,False,False,True,0,0,0,0,1.8000000000000007,0,False,False,0,False,False,False,0,False,True,False,0,1166,08112021,PreComm_Task,60.069740127301316,
47,Volatile,38,25,22,41,17,13,-16,6.974363788000119,True,False,False,False,0,0,0.2,1.8000000000000007,True,False,False,17.905989754000075,False,True,False,0,False,False,False,22,1166,08112021,PreComm_Task,60.069740127301316,
48,Volatile,35,22,51,6,12,13,16,8.29698074299995,True,False,False,True,1.652042265000091,18.646650731000136,0.8,1.9000000000000008,False,True,False,0,False,False,False,0,False,False,False,51,1166,08112021,PreComm_Task,60.069740127301316,
49,Volatile,28,47,39,36,21,19,-11,45.54201308199981,True,False,False,False,0,0,0.5,1.8000000000000007,True,False,False,56.774453102999814,False,True,False,0,False,False,False,39,1166,08112021,PreComm_Task,60.069740127301316,
50,Volatile,71,64,87,48,6,7,16,8.33951376799996,False,True,False,0,0,0,0,1.9000000000000008,0,False,False,0,False,False,False,10.939322539999921,True,False,False,48,1166,08112021,PreComm_Task,60.069740127301316,
51,Volatile,63,82,50,95,19,19,13,6.9304508919999535,False,True,False,0,0,0,0,1.9000000000000008,0,False,False,0,False,False,False,10.531131982000261,True,False,False,95,1166,08112021,PreComm_Task,60.069740127301316,
52,Volatile,40,27,24,43,17,13,-16,8.302011402000062,False,False,True,0,0,0,0,1.9000000000000008,0,False,False,0,False,False,False,0,True,False,False,0,1166,08112021,PreComm_Task,60.069740127301316,
53,Volatile,24,23,37,10,1,1,13,8.092776734000381,True,False,False,False,0,0,0.5,1.9000000000000008,True,False,False,19.41379152000036,False,True,False,0,False,False,False,37,1166,08112021,PreComm_Task,60.069740127301316,
54,Volatile,66,47,53,60,22,19,-13,7.973736543000086,False,True,False,0,0,0,0,2.000000000000001,0,False,False,0,False,False,False,11.623904708999817,False,True,False,53,1166,08112021,PreComm_Task,60.069740127301316,
55,Volatile,35,36,51,20,5,1,-16,7.724193320000268,True,False,False,True,0.5155433230002018,16.32402060100003,0.2,2.000000000000001,False,True,False,0,False,False,False,0,False,False,False,51,1166,08112021,PreComm_Task,60.069740127301316,
56,Volatile,22,35,9,48,13,13,13,7.042799852999906,False,True,False,0,0,0,0,1.9000000000000008,0,False,False,0,False,False,False,9.643010181000136,True,False,False,48,1166,08112021,PreComm_Task,60.069740127301316,
57,Volatile,51,38,40,49,15,13,-11,7.795702322000125,False,True,False,0,0,0,0,1.9000000000000008,0,False,False,0,False,False,False,11.445214317000136,False,True,False,40,1166,08112021,PreComm_Task,60.069740127301316,
58,Volatile,32,19,43,8,14,13,11,7.723902657000053,True,False,False,False,0,0,0.9,1.9000000000000008,True,False,False,19.456251847000203,False,False,True,0,False,False,False,8,1166,08112021,PreComm_Task,60.069740127301316,
59,Volatile,62,43,46,59,23,19,-16,8.4062765460003,False,False,True,0,0,0,0,2.000000000000001,0,False,False,0,False,False,False,0,False,False,False,0,1166,08112021,PreComm_Task,60.069740127301316,
60,Volatile,70,63,81,52,8,7,11,7.6327000259998385,False,True,False,0,0,0,0,2.000000000000001,0,False,False,0,False,False,False,11.783050904999982,True,False,False,52,1166,08112021,PreComm_Task,60.069740127301316,
61,Volatile,26,25,42,9,0,1,16,7.793574373999945,True,False,False,False,0,0,0.6,2.000000000000001,True,False,False,19.31589036000014,False,False,True,0,False,False,False,9,1166,08112021,PreComm_Task,60.069740127301316,
62,Volatile,43,44,32,55,2,1,11,7.1534462439999515,True,False,False,False,0,0,0.7,2.100000000000001,True,False,False,18.884633343999667,False,True,False,0,False,False,False,32,1166,08112021,PreComm_Task,60.069740127301316,
63,Volatile,55,48,39,64,11,7,-16,8.111309504000019,True,False,False,False,0,0,0.4,2.200000000000001,True,False,False,19.64690414200004,False,False,True,0,False,False,False,64,1166,08112021,PreComm_Task,60.069740127301316,
64,Volatile,50,43,63,30,7,7,13,8.148922622999635,True,False,False,False,0,0,0.3,2.300000000000001,True,False,False,19.68031407799981,False,False,True,0,False,False,False,30,1166,08112021,PreComm_Task,60.069740127301316,
65,Volatile,49,50,60,39,3,1,-11,8.377382057999966,False,False,True,0,0,0,0,2.4000000000000012,0,False,False,0,False,False,False,0,False,False,False,0,1166,08112021,PreComm_Task,60.069740127301316,
66,Volatile,29,16,45,0,12,13,16,7.9807228570002735,False,True,False,0,0,0,0,2.4000000000000012,0,False,False,0,False,False,False,11.180876347000321,False,True,False,45,1166,08112021,PreComm_Task,60.069740127301316,
67,Volatile,43,62,27,78,18,19,16,8.030217571999856,False,True,False,0,0,0,0,2.4000000000000012,0,False,False,0,False,False,False,11.230176055999891,True,False,False,78,1166,08112021,PreComm_Task,60.069740127301316,
68,Volatile,58,77,47,88,20,19,11,7.884266220000427,False,True,False,0,0,0,0,2.4000000000000012,0,False,False,0,False,False,False,11.035181602000193,True,False,False,88,1166,08112021,PreComm_Task,60.069740127301316,
69,Volatile,28,41,41,28,16,13,-13,6.695816379999997,False,True,False,0,0,0,0,2.4000000000000012,0,False,False,0,False,False,False,9.646729288000188,True,False,False,28,1166,08112021,PreComm_Task,60.069740127301316,
70,Volatile,25,18,14,29,9,7,-11,7.844523544000367,True,False,False,False,0,0,0.9,2.4000000000000012,True,False,False,20.06676546200015,False,True,False,0,False,False,False,14,1166,08112021,PreComm_Task,60.069740127301316,
71,Volatile,40,39,27,52,4,1,-13,7.215533993000008,True,False,False,True,2.458101251000244,17.76558833199988,0.2,2.5000000000000013,False,False,True,0,False,False,False,0,False,False,False,52,1166,08112021,PreComm_Task,60.069740127301316,
72,Volatile,71,64,58,77,10,7,-13,7.950095236999914,False,True,False,0,0,0,0,2.4000000000000012,0,False,False,0,False,False,False,10.298898276000273,False,True,False,58,1166,08112021,PreComm_Task,60.069740127301316,
73,Volatile,60,41,44,57,23,19,-16,8.125329376999616,False,True,False,0,0,0,0,2.4000000000000012,0,False,False,0,False,False,False,11.475478813999871,False,True,False,44,1166,08112021,PreComm_Task,60.069740127301316,
74,Volatile,50,51,39,62,2,1,11,7.624997446999714,True,False,False,True,1.8123827399999755,18.124778740999773,0.8,2.4000000000000012,False,False,True,0,False,False,False,0,False,False,False,62,1166,08112021,PreComm_Task,60.069740127301316,
75,Volatile,77,58,64,71,22,19,-13,7.145988920000036,False,True,False,0,0,0,0,2.300000000000001,0,False,False,0,False,False,False,11.691431617000035,False,False,True,0,1166,08112021,PreComm_Task,60.069740127301316,
76,Volatile,27,40,43,24,17,13,-16,7.351335898999878,False,True,False,0,0,0,0,2.300000000000001,0,False,False,0,False,False,False,10.350211575999765,True,False,False,24,1166,08112021,PreComm_Task,60.069740127301316,
77,Volatile,36,43,47,32,9,7,-11,7.099989109000035,True,False,False,True,1.5069342639999377,17.503816587000074,1.0,2.300000000000001,False,True,False,0,False,False,False,0,False,False,False,47,1166,08112021,PreComm_Task,60.069740127301316,
78,Volatile,79,60,68,71,21,19,-11,8.241985719999775,False,False,True,0,0,0,0,2.200000000000001,0,True,False,0,False,False,False,0,False,False,False,0,1166,08112021,PreComm_Task,60.069740127301316,
79,Volatile,65,64,49,80,5,1,-16,6.650249132000226,True,False,False,True,1.9022882009999194,16.948993239000174,0.5,2.200000000000001,False,False,True,0,False,False,False,0,False,False,False,80,1166,08112021,PreComm_Task,60.069740127301316,
80,Volatile,49,62,60,51,15,13,-11,7.398222255000292,True,False,False,True,1.5045862440001656,17.09841885800006,0.3,2.100000000000001,False,True,False,0,False,False,False,0,False,False,False,60,1166,08112021,PreComm_Task,60.069740127301316,
81,Volatile,47,54,31,70,6,7,16,7.745696614999815,True,False,False,False,0,0,0.7,2.000000000000001,True,False,False,19.383746001999953,False,False,True,0,False,False,False,70,1166,08112021,PreComm_Task,60.069740127301316,
82,Volatile,25,18,12,31,10,7,-13,7.834172741000202,True,False,False,True,1.6293071740001324,17.684467552000115,0.3,2.100000000000001,False,False,True,0,False,False,False,0,False,False,False,31,1166,08112021,PreComm_Task,60.069740127301316,
83,Volatile,63,82,50,95,19,19,13,7.149061727000117,False,True,False,0,0,0,0,2.000000000000001,0,False,False,0,False,False,False,10.39830924600028,True,False,False,95,1166,08112021,PreComm_Task,60.069740127301316,
84,Volatile,39,46,55,30,11,7,-16,8.346157145000234,False,True,False,0,0,0,0,2.000000000000001,0,False,False,0,False,False,False,11.144745832999888,True,False,False,30,1166,08112021,PreComm_Task,60.069740127301316,
85,Volatile,31,30,47,14,0,1,16,6.544468976000189,True,False,False,True,1.6971590600001036,16.944068373999926,0.8,2.000000000000001,False,False,False,0,False,False,False,0,False,False,False,0,1166,08112021,PreComm_Task,60.069740127301316,
86,Volatile,31,24,42,13,8,7,11,7.279099080999913,True,False,False,False,0,0,0.8,1.9000000000000008,True,False,False,18.90969769200001,False,False,True,0,False,False,False,13,1166,08112021,PreComm_Task,60.069740127301316,
87,Volatile,53,66,37,82,12,13,16,7.13319755800012,True,False,False,True,1.3944905899998048,17.133487755999795,0.7,2.000000000000001,False,False,True,0,False,False,False,0,False,False,False,82,1166,08112021,PreComm_Task,60.069740127301316,
88,Volatile,49,42,62,29,7,7,13,7.013620033000279,True,False,False,True,1.6485760200002915,17.464668864000032,0.9,1.9000000000000008,False,True,False,0,False,False,False,0,False,False,False,62,1166,08112021,PreComm_Task,60.069740127301316,
89,Volatile,27,46,11,62,18,19,16,8.364278029000161,False,False,True,0,0,0,0,1.8000000000000007,0,True,False,0,False,False,False,0,False,False,False,0,1166,08112021,PreComm_Task,60.069740127301316,
90,Volatile,44,57,57,44,16,13,-13,7.284099813000012,False,True,False,0,0,0,0,1.8000000000000007,0,False,False,0,False,False,False,11.534424302999923,True,False,False,44,1166,08112021,PreComm_Task,60.069740127301316,
91,Volatile,60,79,49,90,20,19,11,7.895135840999956,True,False,False,False,0,0,0.9,1.8000000000000007,True,False,False,19.527459954999813,False,True,False,0,False,False,False,49,1166,08112021,PreComm_Task,60.069740127301316,
92,Volatile,23,24,36,11,4,1,-13,7.98550255300006,True,False,False,False,0,0,0.9,1.9000000000000008,True,False,False,19.71247928999992,False,True,False,0,False,False,False,36,1166,08112021,PreComm_Task,60.069740127301316,
93,Volatile,36,35,25,46,3,1,-11,7.350074848000077,True,False,False,False,0,0,0.5,2.000000000000001,True,False,False,18.777368214000035,False,True,False,0,False,False,False,25,1166,08112021,PreComm_Task,60.069740127301316,
94,Volatile,52,39,65,26,13,13,13,7.216823228999601,False,True,False,0,0,0,0,2.100000000000001,0,False,False,0,False,False,False,10.567447710999659,True,False,False,26,1166,08112021,PreComm_Task,60.069740127301316,
95,Volatile,46,33,57,22,14,13,11,8.243542503000299,False,True,False,0,0,0,0,2.100000000000001,0,False,False,0,False,False,False,11.192456348000178,False,True,False,57,1166,08112021,PreComm_Task,60.069740127301316,
96,Volatile,21,20,34,7,1,1,13,6.681793051999648,True,False,False,False,0,0,0.6,2.100000000000001,True,False,False,18.31307728899992,False,True,False,0,False,False,False,34,1166,08112021,PreComm_Task,60.069740127301316,
