TrialNumber,Condition,OptionA,OptionB,EndA,EndB,combination,difference,change,Choice_RT,Choice_Wait,Choice_Commit,Choice_Miss,Press_hit,Play_RT,RT_trialClock_play,ITI_play,Square_timing,Press_miss,Play_win_A,Play_win_B,Late_RT,Play_lost,Play_lost_chosenA,Play_lost_chosenB,Precomm_RT,Precomm_B,Precomm_A,Precomm_miss,Earnings,participant,date,expName,frameRate,
1,Volatile,27,20,40,7,7,7,13,6.759402028001205,True,False,False,True,0.5076087439956609,16.25060961899726,1.0,0.8,False,True,False,0,False,False,False,0,False,False,False,40,1003,05072021,PreComm_Task,None,
2,Volatile,51,64,40,75,14,13,11,6.225748090997513,False,True,False,0,0,0,0,0.7000000000000001,0,False,False,0,False,False,False,8.626567377003084,False,True,False,40,1003,05072021,PreComm_Task,None,
3,Volatile,65,52,54,63,15,13,-11,5.665756968002825,True,False,False,False,0,0,0.3,0.7000000000000001,True,False,False,15.705815952002013,False,False,True,0,False,False,False,63,1003,05072021,PreComm_Task,None,
4,Volatile,57,76,68,65,21,19,-11,6.521366107997892,False,True,False,0,0,0,0,0.8,0,False,False,0,False,False,False,9.571154089993797,True,False,False,65,1003,05072021,PreComm_Task,None,
5,Volatile,45,38,34,49,9,7,-11,5.152808433995233,True,False,False,True,0.5668286610016366,14.500728465995053,0.8,0.8,False,False,True,0,False,False,False,0,False,False,False,49,1003,05072021,PreComm_Task,None,
6,Volatile,43,50,59,34,11,7,-16,6.755633332002617,True,False,False,True,0.5629782030009665,16.206806549002067,0.9,0.7000000000000001,False,True,False,0,False,False,False,0,False,False,False,59,1003,05072021,PreComm_Task,None,
7,Volatile,30,17,17,30,16,13,-13,6.112744112004293,True,False,False,True,0.5662998849948053,15.363751254997624,0.7,0.6000000000000001,False,False,True,0,False,False,False,0,False,False,False,30,1003,05072021,PreComm_Task,None,
8,Volatile,37,56,26,67,20,19,11,6.072602401996846,True,False,False,False,0,0,0.2,0.5000000000000001,True,False,False,15.801745415003097,False,True,False,0,False,False,False,26,1003,05072021,PreComm_Task,None,
9,Volatile,47,46,34,59,4,1,-13,6.227237594001053,False,True,False,0,0,0,0,0.6000000000000001,0,False,False,0,False,False,False,8.327311845001532,True,False,False,59,1003,05072021,PreComm_Task,None,
10,Volatile,41,48,25,64,6,7,16,5.769298958002764,False,True,False,0,0,0,0,0.6000000000000001,0,False,False,0,False,False,False,8.21909776400571,False,True,False,25,1003,05072021,PreComm_Task,None,
11,Volatile,33,34,17,50,0,1,16,5.1901626879989635,False,True,False,0,0,0,0,0.6000000000000001,0,False,False,0,False,False,False,7.690956446997006,False,True,False,17,1003,05072021,PreComm_Task,None,
12,Volatile,23,42,36,29,22,19,-13,6.7205925669986755,True,False,False,False,0,0,0.6,0.6000000000000001,True,False,False,16.95545255199977,False,False,True,0,False,False,False,29,1003,05072021,PreComm_Task,None,
13,Volatile,36,35,20,51,5,1,-16,6.034217633998196,True,False,False,True,0.6075825239968253,15.032889801994315,0.4,0.7000000000000001,False,False,True,0,False,False,False,0,False,False,False,51,1003,05072021,PreComm_Task,None,
14,Volatile,18,37,5,50,19,19,13,6.5652729619978345,False,True,False,0,0,0,0,0.6000000000000001,0,False,False,0,False,False,False,8.765832049997698,False,True,False,5,1003,05072021,PreComm_Task,None,
15,Volatile,37,18,53,2,18,19,16,7.525351801996294,False,True,False,0,0,0,0,0.6000000000000001,0,False,False,0,False,False,False,9.775182256002154,True,False,False,2,1003,05072021,PreComm_Task,None,
16,Volatile,35,54,51,38,23,19,-16,6.323974073005957,True,False,False,False,0,0,0.7,0.6000000000000001,True,False,False,16.66096161400492,False,False,True,0,False,False,False,38,1003,05072021,PreComm_Task,None,
17,Volatile,50,43,61,32,8,7,11,5.895758662001754,False,True,False,0,0,0,0,0.7000000000000001,0,False,False,0,False,False,False,8.34612781600299,True,False,False,32,1003,05072021,PreComm_Task,None,
18,Volatile,29,36,42,23,10,7,-13,6.223833431999083,True,False,False,True,0.6151839899976039,15.425230075998115,0.6,0.7000000000000001,False,True,False,0,False,False,False,0,False,False,False,42,1003,05072021,PreComm_Task,None,
19,Volatile,23,36,39,20,17,13,-16,5.708437249995768,True,False,False,False,0,0,0.8,0.6000000000000001,True,False,False,16.14141933299834,False,False,True,0,False,False,False,20,1003,05072021,PreComm_Task,None,
20,Volatile,56,69,40,85,12,13,16,6.363503438995394,False,True,False,0,0,0,0,0.7000000000000001,0,False,False,0,False,False,False,8.812577897995652,True,False,False,85,1003,05072021,PreComm_Task,None,
21,Volatile,30,17,43,4,13,13,13,6.012406415997248,True,False,False,False,0,0,0.2,0.7000000000000001,True,False,False,15.942055955994874,False,False,True,0,False,False,False,4,1003,05072021,PreComm_Task,None,
22,Volatile,46,45,59,32,1,1,13,6.172824750996369,True,False,False,True,0.6280820520041743,14.969973859995662,0.2,0.8,False,True,False,0,False,False,False,0,False,False,False,59,1003,05072021,PreComm_Task,None,
23,Volatile,24,25,13,36,2,1,11,6.318481921996863,True,False,False,True,0.6607893690015771,15.16902319899964,0.2,0.7000000000000001,False,False,True,0,False,False,False,0,False,False,False,36,1003,05072021,PreComm_Task,None,
24,Volatile,34,35,45,24,3,1,-11,6.074500066999462,True,False,False,False,0,0,0.5,0.6000000000000001,True,False,False,16.21833242399589,False,False,True,0,False,False,False,24,1003,05072021,PreComm_Task,None,
25,Volatile,61,48,72,37,14,13,11,5.803161434996582,False,True,False,0,0,0,0,0.7000000000000001,0,False,False,0,False,False,False,8.302871606996632,False,True,False,72,1003,05072021,PreComm_Task,None,
26,Volatile,43,36,27,52,11,7,-16,6.032992806998664,False,True,False,0,0,0,0,0.7000000000000001,0,False,False,0,False,False,False,8.280360087002919,False,True,False,27,1003,05072021,PreComm_Task,None,
27,Volatile,25,44,36,33,21,19,-11,6.052016424997419,False,True,False,0,0,0,0,0.7000000000000001,0,False,False,0,False,False,False,8.001867156999651,False,True,False,36,1003,05072021,PreComm_Task,None,
28,Volatile,37,44,48,33,9,7,-11,5.930927343004441,True,False,False,True,0.4721565500003635,15.081008978006139,0.7,0.7000000000000001,False,True,False,0,False,False,False,0,False,False,False,48,1003,05072021,PreComm_Task,None,
29,Volatile,58,45,74,29,12,13,16,5.723054077003326,False,True,False,0,0,0,0,0.6000000000000001,0,False,False,0,False,False,False,8.07423690300493,False,True,False,74,1003,05072021,PreComm_Task,None,
30,Volatile,62,63,49,76,1,1,13,5.747943196998676,True,False,False,False,0,0,0.4,0.6000000000000001,True,False,False,15.790868108000723,False,False,True,0,False,False,False,76,1003,05072021,PreComm_Task,None,
31,Volatile,37,30,24,43,10,7,-13,5.86079134800093,False,True,False,0,0,0,0,0.7000000000000001,0,False,False,0,False,False,False,9.460444513999391,False,True,False,24,1003,05072021,PreComm_Task,None,
32,Volatile,35,48,48,35,16,13,-13,7.41040265000629,False,True,False,0,0,0,0,0.7000000000000001,0,False,False,0,False,False,False,10.00966325900663,False,True,False,48,1003,05072021,PreComm_Task,None,
33,Volatile,79,60,63,76,23,19,-16,5.948034099004872,True,False,False,False,0,0,0.6,0.7000000000000001,True,False,False,16.28161512999941,False,True,False,0,False,False,False,63,1003,05072021,PreComm_Task,None,
34,Volatile,17,24,6,35,8,7,11,6.2098195840007975,False,True,False,0,0,0,0,0.8,0,False,False,0,False,False,False,8.059951605995593,False,True,False,6,1003,05072021,PreComm_Task,None,
35,Volatile,38,37,25,50,4,1,-13,5.842772554002295,True,False,False,True,0.4967471270065289,15.042332753000665,0.7,0.8,False,False,True,0,False,False,False,0,False,False,False,50,1003,05072021,PreComm_Task,None,
36,Volatile,24,43,11,56,19,19,13,6.082996910001384,False,True,False,0,0,0,0,0.7000000000000001,0,False,False,0,False,False,False,10.083065264996549,True,False,False,56,1003,05072021,PreComm_Task,None,
37,Volatile,36,43,23,56,7,7,13,6.03464313299628,False,True,False,0,0,0,0,0.7000000000000001,0,False,False,0,False,False,False,8.884724506999191,False,True,False,23,1003,05072021,PreComm_Task,None,
38,Volatile,59,72,75,56,17,13,-16,6.288183119002497,True,False,False,False,0,0,0.6,0.7000000000000001,True,False,False,16.626306841004407,False,True,False,0,False,False,False,75,1003,05072021,PreComm_Task,None,
39,Volatile,24,25,8,41,0,1,16,6.722789986000862,False,True,False,0,0,0,0,0.8,0,False,False,0,False,False,False,9.671420038997894,False,True,False,8,1003,05072021,PreComm_Task,None,
40,Volatile,37,36,21,52,5,1,-16,6.317283247997693,True,False,False,False,0,0,0.5,0.8,True,False,False,16.638932975998614,False,True,False,0,False,False,False,21,1003,05072021,PreComm_Task,None,
41,Volatile,25,26,36,15,3,1,-11,6.126794014999177,True,False,False,True,0.5120624409973971,15.328394176001893,0.7,0.9,False,True,False,0,False,False,False,0,False,False,False,36,1003,05072021,PreComm_Task,None,
42,Volatile,75,56,86,45,20,19,11,5.7813266219964135,False,True,False,0,0,0,0,0.8,0,False,False,0,False,False,False,7.9322244560025865,False,True,False,86,1003,05072021,PreComm_Task,None,
43,Volatile,26,39,13,52,13,13,13,5.736848797001585,False,True,False,0,0,0,0,0.8,0,False,False,0,False,False,False,7.93675401800283,True,False,False,52,1003,05072021,PreComm_Task,None,
44,Volatile,38,19,54,3,18,19,16,5.514689812000142,False,True,False,0,0,0,0,0.8,0,False,False,0,False,False,False,7.664517003002402,False,True,False,54,1003,05072021,PreComm_Task,None,
45,Volatile,45,46,34,57,2,1,11,6.131973225994443,True,False,False,True,0.6081868010005564,14.932073122996371,0.2,0.8,False,False,True,0,False,False,False,0,False,False,False,57,1003,05072021,PreComm_Task,None,
46,Volatile,36,17,23,30,22,19,-13,5.969646259000001,False,True,False,0,0,0,0,0.7000000000000001,0,False,False,0,False,False,False,8.268743134998658,False,True,False,23,1003,05072021,PreComm_Task,None,
47,Volatile,26,39,37,28,15,13,-11,5.932279108994408,True,False,False,True,0.24614801800635178,15.181643541996891,1.0,0.7000000000000001,False,True,False,0,False,False,False,0,False,False,False,37,1003,05072021,PreComm_Task,None,
48,Volatile,29,36,13,52,6,7,16,6.025447887004702,True,False,False,False,0,0,0.2,0.6000000000000001,True,False,False,15.861250276000646,False,True,False,0,False,False,False,13,1003,05072021,PreComm_Task,None,
49,Volatile,17,18,30,5,4,1,-13,9.029300188005436,True,False,False,True,0.36134867500368273,18.18193113700545,0.8,0.7000000000000001,False,True,False,0,False,False,False,0,False,False,False,30,1003,05072021,PreComm_Task,None,
50,Volatile,63,76,74,65,15,13,-11,6.065082011002232,False,True,False,0,0,0,0,0.6000000000000001,0,False,False,0,False,False,False,8.514133862998278,True,False,False,65,1003,05072021,PreComm_Task,None,
51,Volatile,49,56,36,69,7,7,13,5.607977714003937,True,False,False,False,0,0,0.7,0.6000000000000001,True,False,False,15.950160482003412,False,True,False,0,False,False,False,36,1003,05072021,PreComm_Task,None,
52,Volatile,57,58,73,42,5,1,-16,6.157478738001373,True,False,False,True,0.5683240330035915,15.40759637500014,0.7,0.7000000000000001,False,True,False,0,False,False,False,0,False,False,False,73,1003,05072021,PreComm_Task,None,
53,Volatile,69,50,56,63,22,19,-13,6.711096783001267,False,True,False,0,0,0,0,0.6000000000000001,0,False,False,0,False,False,False,10.26067732500087,False,True,False,56,1003,05072021,PreComm_Task,None,
54,Volatile,75,56,59,72,23,19,-16,6.091556348997983,False,True,False,0,0,0,0,0.6000000000000001,0,False,False,0,False,False,False,9.89136289399903,True,False,False,72,1003,05072021,PreComm_Task,None,
55,Volatile,31,32,15,48,0,1,16,6.916442576999543,False,True,False,0,0,0,0,0.6000000000000001,0,False,False,0,False,False,False,9.065345476999937,True,False,False,48,1003,05072021,PreComm_Task,None,
56,Volatile,18,17,7,28,3,1,-11,6.015488930002903,True,False,False,False,0,0,0.4,0.6000000000000001,True,False,False,16.04584777400305,False,False,True,0,False,False,False,28,1003,05072021,PreComm_Task,None,
57,Volatile,49,56,33,72,6,7,16,6.195002121996367,False,True,False,0,0,0,0,0.7000000000000001,0,False,False,0,False,False,False,8.544633366997004,True,False,False,72,1003,05072021,PreComm_Task,None,
58,Volatile,49,68,38,79,20,19,11,7.008034767000936,True,False,False,True,0.2504522419985733,16.060835842996312,0.8,0.7000000000000001,False,False,True,0,False,False,False,0,False,False,False,79,1003,05072021,PreComm_Task,None,
59,Volatile,63,44,52,55,21,19,-11,5.912503020001168,False,True,False,0,0,0,0,0.6000000000000001,0,False,False,0,False,False,False,8.36250943900086,False,True,False,52,1003,05072021,PreComm_Task,None,
60,Volatile,16,29,0,45,12,13,16,5.741480593998858,True,False,False,True,0.22294773799512768,14.943478895998851,1.0,0.6000000000000001,False,False,True,0,False,False,False,0,False,False,False,45,1003,05072021,PreComm_Task,None,
61,Volatile,16,17,5,28,2,1,11,5.927062670998566,False,True,False,0,0,0,0,0.5000000000000001,0,False,False,0,False,False,False,8.227190131001407,True,False,False,28,1003,05072021,PreComm_Task,None,
62,Volatile,55,68,42,81,13,13,13,5.562658554998052,False,True,False,0,0,0,0,0.5000000000000001,0,False,False,0,False,False,False,7.762684519999311,True,False,False,81,1003,05072021,PreComm_Task,None,
63,Volatile,44,45,31,58,1,1,13,6.419803415003116,False,True,False,0,0,0,0,0.5000000000000001,0,False,False,0,False,False,False,8.571400997003366,False,True,False,31,1003,05072021,PreComm_Task,None,
64,Volatile,54,41,38,57,17,13,-16,6.4707525669946335,False,True,False,0,0,0,0,0.5000000000000001,0,False,False,0,False,False,False,8.670155400999647,False,True,False,38,1003,05072021,PreComm_Task,None,
65,Volatile,52,71,39,84,19,19,13,5.643254292997881,True,False,False,False,0,0,0.2,0.5000000000000001,True,False,False,15.407643430000462,False,True,False,0,False,False,False,39,1003,05072021,PreComm_Task,None,
66,Volatile,52,65,41,76,14,13,11,5.755370598002628,False,True,False,0,0,0,0,0.6000000000000001,0,False,False,0,False,False,False,7.855951174999063,True,False,False,76,1003,05072021,PreComm_Task,None,
67,Volatile,52,33,68,17,18,19,16,5.417039790001581,False,True,False,0,0,0,0,0.6000000000000001,0,False,False,0,False,False,False,7.716979210003046,False,True,False,68,1003,05072021,PreComm_Task,None,
68,Volatile,48,41,32,57,11,7,-16,5.695674558999599,False,True,False,0,0,0,0,0.6000000000000001,0,False,False,0,False,False,False,7.895529467998131,True,False,False,57,1003,05072021,PreComm_Task,None,
69,Volatile,57,50,44,63,10,7,-13,5.699537246000546,True,False,False,True,0.4111643770011142,15.002386960994045,0.9,0.6000000000000001,False,False,True,0,False,False,False,0,False,False,False,63,1003,05072021,PreComm_Task,None,
70,Volatile,66,59,77,48,8,7,11,6.755599729003734,True,False,False,True,0.2252702780024265,15.970553013001336,1.0,0.5000000000000001,False,True,False,0,False,False,False,0,False,False,False,77,1003,05072021,PreComm_Task,None,
71,Volatile,61,54,50,65,9,7,-11,6.07970968799782,False,True,False,0,0,0,0,0.40000000000000013,0,False,False,0,False,False,False,8.329319418000523,False,True,False,50,1003,05072021,PreComm_Task,None,
72,Volatile,39,52,52,39,16,13,-13,6.038365975000488,True,False,False,False,0,0,0.7,0.40000000000000013,True,False,False,16.204930637999496,False,False,True,0,False,False,False,39,1003,05072021,PreComm_Task,None,
73,Volatile,25,26,9,42,0,1,16,5.881596815001103,True,False,False,False,0,0,0.9,0.5000000000000001,True,False,False,16.326875806000317,False,True,False,0,False,False,False,9,1003,05072021,PreComm_Task,None,
74,Volatile,28,21,15,34,10,7,-13,5.693751888000406,True,False,False,True,0.5457137399935164,15.045171746998676,0.8,0.6000000000000001,False,False,True,0,False,False,False,0,False,False,False,34,1003,05072021,PreComm_Task,None,
75,Volatile,44,43,28,59,5,1,-16,5.922108710001339,False,True,False,0,0,0,0,0.5000000000000001,0,False,False,0,False,False,False,8.071801763006079,False,True,False,28,1003,05072021,PreComm_Task,None,
76,Volatile,28,41,39,30,15,13,-11,6.001580037001986,False,True,False,0,0,0,0,0.5000000000000001,0,False,False,0,False,False,False,8.150475923001068,True,False,False,30,1003,05072021,PreComm_Task,None,
77,Volatile,58,51,47,62,9,7,-11,5.9580374079960166,True,False,False,False,0,0,0.6,0.5000000000000001,True,False,False,16.07929815499665,False,True,False,0,False,False,False,47,1003,05072021,PreComm_Task,None,
78,Volatile,22,41,11,52,20,19,11,6.129994930997782,True,False,False,True,0.5268831090070307,15.385647900002368,0.7,0.6000000000000001,False,False,True,0,False,False,False,0,False,False,False,52,1003,05072021,PreComm_Task,None,
79,Volatile,34,53,18,69,18,19,16,5.71332666699891,False,True,False,0,0,0,0,0.5000000000000001,0,False,False,0,False,False,False,7.862919815001078,True,False,False,69,1003,05072021,PreComm_Task,None,
80,Volatile,28,47,15,60,19,19,13,5.468540239999129,False,True,False,0,0,0,0,0.5000000000000001,0,False,False,0,False,False,False,7.616829351994966,True,False,False,60,1003,05072021,PreComm_Task,None,
81,Volatile,53,54,42,65,2,1,11,6.214444543002173,True,False,False,False,0,0,0.2,0.5000000000000001,True,False,False,15.984324019002088,False,False,True,0,False,False,False,65,1003,05072021,PreComm_Task,None,
82,Volatile,58,51,71,38,7,7,13,5.934392030001618,False,True,False,0,0,0,0,0.6000000000000001,0,False,False,0,False,False,False,8.083948956002132,False,True,False,71,1003,05072021,PreComm_Task,None,
83,Volatile,30,43,14,59,12,13,16,6.029632837002282,True,False,False,False,0,0,0.2,0.6000000000000001,True,False,False,15.867267544999777,False,False,True,0,False,False,False,59,1003,05072021,PreComm_Task,None,
84,Volatile,60,47,44,63,17,13,-16,5.979203351998876,False,True,False,0,0,0,0,0.7000000000000001,0,False,False,0,False,False,False,8.178814057995623,False,True,False,44,1003,05072021,PreComm_Task,None,
85,Volatile,64,57,80,41,6,7,16,6.145107188000111,False,True,False,0,0,0,0,0.7000000000000001,0,False,False,0,False,False,False,8.144512639002642,False,True,False,80,1003,05072021,PreComm_Task,None,
86,Volatile,32,25,16,41,11,7,-16,6.08846541299863,False,True,False,0,0,0,0,0.7000000000000001,0,False,False,0,False,False,False,8.23588126800314,False,True,False,16,1003,05072021,PreComm_Task,None,
87,Volatile,24,23,37,10,1,1,13,6.1994943550016615,True,False,False,True,0.4713055690008332,14.850266535002447,0.2,0.7000000000000001,False,True,False,0,False,False,False,0,False,False,False,37,1003,05072021,PreComm_Task,None,
88,Volatile,64,45,51,58,22,19,-13,5.883346202004759,False,True,False,0,0,0,0,0.6000000000000001,0,False,False,0,False,False,False,8.232847778002906,False,True,False,51,1003,05072021,PreComm_Task,None,
89,Volatile,60,61,73,48,4,1,-13,6.336946300994896,True,False,False,True,0.26967278699885355,14.987851822996163,0.4,0.6000000000000001,False,True,False,0,False,False,False,0,False,False,False,73,1003,05072021,PreComm_Task,None,
90,Volatile,37,36,26,47,3,1,-11,5.770642444003897,True,False,False,True,0.49691916900337674,14.768047256999125,0.5,0.5000000000000001,False,False,True,0,False,False,False,0,False,False,False,47,1003,05072021,PreComm_Task,None,
91,Volatile,54,61,43,72,8,7,11,5.951852952995978,False,True,False,0,0,0,0,0.40000000000000013,0,False,False,0,False,False,False,8.35027004499716,False,True,False,43,1003,05072021,PreComm_Task,None,
92,Volatile,55,42,68,29,13,13,13,5.991369880997809,False,True,False,0,0,0,0,0.40000000000000013,0,False,False,0,False,False,False,8.090157068996632,False,True,False,68,1003,05072021,PreComm_Task,None,
93,Volatile,43,62,54,51,21,19,-11,6.538479563998408,True,False,False,False,0,0,0.3,0.40000000000000013,True,False,False,16.277711574999557,False,True,False,0,False,False,False,54,1003,05072021,PreComm_Task,None,
94,Volatile,40,53,29,64,14,13,11,5.872425572000793,False,True,False,0,0,0,0,0.5000000000000001,0,False,False,0,False,False,False,7.971753808000358,True,False,False,64,1003,05072021,PreComm_Task,None,
95,Volatile,54,67,67,54,16,13,-13,5.8871592419964145,False,True,False,0,0,0,0,0.5000000000000001,0,False,False,0,False,False,False,7.986311326996656,True,False,False,54,1003,05072021,PreComm_Task,None,
96,Volatile,54,35,38,51,23,19,-16,5.731155793000653,False,True,False,0,0,0,0,0.5000000000000001,0,False,False,0,False,False,False,7.629889320996881,False,True,False,38,1003,05072021,PreComm_Task,None,
