TrialNumber,Condition,OptionA,OptionB,EndA,EndB,combination,difference,change,Choice_RT,Choice_Wait,Choice_Commit,Choice_Miss,Press_hit,Play_RT,RT_trialClock_play,ITI_play,Square_timing,Press_miss,Play_win_A,Play_win_B,Late_RT,Play_lost,Play_lost_chosenA,Play_lost_chosenB,Precomm_RT,Precomm_B,Precomm_A,Precomm_miss,Earnings,participant,date,expName,frameRate,
1,Volatile,40,39,24,55,5,1,-16,5.816233618999830,TRUE,FALSE,FALSE,TRUE,0.7769307020062120,15.501415913997300,0.9,0.8,FALSE,FALSE,TRUE,0,FALSE,FALSE,FALSE,0,FALSE,FALSE,FALSE,55,1137,30092021,PreComm_Task,None,
2,Volatile,55,42,39,58,17,13,-16,5.80964498600224,TRUE,FALSE,FALSE,FALSE,0,0,0.9,0.7000000000000000,TRUE,FALSE,FALSE,16.469863849997600,FALSE,TRUE,FALSE,0,FALSE,FALSE,FALSE,39,1137,30092021,PreComm_Task,None,
3,Volatile,66,47,50,63,23,19,-16,6.7233475650136800,TRUE,FALSE,FALSE,FALSE,0,0,0.7,0.8,TRUE,FALSE,FALSE,17.302393377001900,FALSE,FALSE,TRUE,0,FALSE,FALSE,FALSE,63,1137,30092021,PreComm_Task,None,
4,Volatile,38,37,51,24,1,1,13,5.719028207997330,TRUE,FALSE,FALSE,FALSE,0,0,0.7,0.9,TRUE,FALSE,FALSE,16.377271257006200,FALSE,FALSE,TRUE,0,FALSE,FALSE,FALSE,24,1137,30092021,PreComm_Task,None,
5,Volatile,40,59,24,75,18,19,16,6.340951553997000,TRUE,FALSE,FALSE,TRUE,0.765933047994622,16.09326835499090,1.0,1.0,FALSE,FALSE,TRUE,0,FALSE,FALSE,FALSE,0,FALSE,FALSE,FALSE,75,1137,30092021,PreComm_Task,None,
6,Volatile,50,49,66,33,0,1,16,5.713760129001460,TRUE,FALSE,FALSE,TRUE,0.8094947939971460,14.714248201009500,0.2,0.9,FALSE,TRUE,FALSE,0,FALSE,FALSE,FALSE,0,FALSE,FALSE,FALSE,66,1137,30092021,PreComm_Task,None,
7,Volatile,54,55,43,66,2,1,11,6.016348539997130,TRUE,FALSE,FALSE,FALSE,0,0,0.3,0.8,TRUE,FALSE,FALSE,16.178075249001300,FALSE,FALSE,TRUE,0,FALSE,FALSE,FALSE,66,1137,30092021,PreComm_Task,None,
8,Volatile,43,24,56,11,19,19,13,6.1716253259946800,TRUE,FALSE,FALSE,TRUE,0.748008299007779,15.722164104998200,0.8,0.9,FALSE,TRUE,FALSE,0,FALSE,FALSE,FALSE,0,FALSE,FALSE,FALSE,56,1137,30092021,PreComm_Task,None,
9,Volatile,32,25,48,9,6,7,16,5.765757251996550,TRUE,FALSE,FALSE,FALSE,0,0,0.9,0.8,TRUE,FALSE,FALSE,16.513991218002000,FALSE,FALSE,TRUE,0,FALSE,FALSE,FALSE,9,1137,30092021,PreComm_Task,None,
10,Volatile,45,38,32,51,10,7,-13,5.811343927009150,TRUE,FALSE,FALSE,TRUE,0.8171284120035130,15.313176599011100,0.7,0.9,FALSE,FALSE,TRUE,0,FALSE,FALSE,FALSE,0,FALSE,FALSE,FALSE,51,1137,30092021,PreComm_Task,None,
11,Volatile,58,45,45,58,16,13,-13,5.616455808994940,TRUE,FALSE,FALSE,FALSE,0,0,1.0,0.8,TRUE,FALSE,FALSE,16.467057311994700,FALSE,FALSE,TRUE,0,FALSE,FALSE,FALSE,58,1137,30092021,PreComm_Task,None,
12,Volatile,60,47,73,34,13,13,13,6.15363019000506,TRUE,FALSE,FALSE,TRUE,0.9003877039940560,15.953146621992300,0.9,0.9,FALSE,TRUE,FALSE,0,FALSE,FALSE,FALSE,0,FALSE,FALSE,FALSE,73,1137,30092021,PreComm_Task,None,
13,Volatile,65,64,52,77,4,1,-13,5.758856610991640,TRUE,FALSE,FALSE,FALSE,0,0,0.3,0.8,TRUE,FALSE,FALSE,15.905803966990800,FALSE,FALSE,TRUE,0,FALSE,FALSE,FALSE,77,1137,30092021,PreComm_Task,None,
14,Volatile,26,19,10,35,11,7,-16,6.028949355997610,TRUE,FALSE,FALSE,TRUE,0.8398822870076400,15.179214650997900,0.3,0.9,FALSE,FALSE,TRUE,0,FALSE,FALSE,FALSE,0,FALSE,FALSE,FALSE,35,1137,30092021,PreComm_Task,None,
15,Volatile,20,21,31,10,3,1,-11,6.756457317009340,TRUE,FALSE,FALSE,FALSE,0,0,0.9,0.8,TRUE,FALSE,FALSE,17.50174636200250,FALSE,FALSE,TRUE,0,FALSE,FALSE,FALSE,10,1137,30092021,PreComm_Task,None,
16,Volatile,43,62,56,49,22,19,-13,8.345572906997400,FALSE,FALSE,TRUE,0,0,0,0,0.9,0,FALSE,FALSE,0,FALSE,FALSE,FALSE,0,FALSE,FALSE,FALSE,0,1137,30092021,PreComm_Task,None,
17,Volatile,54,47,65,36,8,7,11,5.7619844199944100,TRUE,FALSE,FALSE,TRUE,0.7981658740027340,15.064182154994300,0.5,0.9,FALSE,TRUE,FALSE,0,FALSE,FALSE,FALSE,0,FALSE,FALSE,FALSE,65,1137,30092021,PreComm_Task,None,
18,Volatile,33,26,22,37,9,7,-11,6.327213930999280,TRUE,FALSE,FALSE,FALSE,0,0,0.2,0.8,TRUE,FALSE,FALSE,16.359629022001200,FALSE,TRUE,FALSE,0,FALSE,FALSE,FALSE,22,1137,30092021,PreComm_Task,None,
19,Volatile,21,28,8,41,7,7,13,6.049506930008650,TRUE,FALSE,FALSE,TRUE,0.8047436449996890,15.049926270003200,0.2,0.9,FALSE,FALSE,TRUE,0,FALSE,FALSE,FALSE,0,FALSE,FALSE,FALSE,41,1137,30092021,PreComm_Task,None,
20,Volatile,38,51,22,67,12,13,16,5.76091678100056,TRUE,FALSE,FALSE,FALSE,0,0,0.2,0.8,TRUE,FALSE,FALSE,15.76954634199500,FALSE,TRUE,FALSE,0,FALSE,FALSE,FALSE,22,1137,30092021,PreComm_Task,None,
21,Volatile,35,22,46,11,14,13,11,5.532647508996890,TRUE,FALSE,FALSE,TRUE,0.8016047010023610,14.83281511599490,0.5,0.9,FALSE,TRUE,FALSE,0,FALSE,FALSE,FALSE,0,FALSE,FALSE,FALSE,46,1137,30092021,PreComm_Task,None,
22,Volatile,33,52,22,63,20,19,11,5.8829565169871800,TRUE,FALSE,FALSE,TRUE,0.7056036449939710,14.782148727987100,0.2,0.8,FALSE,FALSE,TRUE,0,FALSE,FALSE,FALSE,0,FALSE,FALSE,FALSE,63,1137,30092021,PreComm_Task,None,
23,Volatile,25,44,36,33,21,19,-11,6.1627151949942300,TRUE,FALSE,FALSE,FALSE,0,0,0.7,0.7000000000000000,TRUE,FALSE,FALSE,16.585732117993800,FALSE,TRUE,FALSE,0,FALSE,FALSE,FALSE,36,1137,30092021,PreComm_Task,None,
24,Volatile,26,39,37,28,15,13,-11,5.784221737005280,TRUE,FALSE,FALSE,TRUE,0.7188057040038980,15.185058125003700,0.7,0.8,FALSE,TRUE,FALSE,0,FALSE,FALSE,FALSE,0,FALSE,FALSE,FALSE,37,1137,30092021,PreComm_Task,None,
25,Volatile,32,39,16,55,6,7,16,5.974347338007650,TRUE,FALSE,FALSE,FALSE,0,0,1.0,0.7000000000000000,TRUE,FALSE,FALSE,16.717669165009300,FALSE,FALSE,TRUE,0,FALSE,FALSE,FALSE,55,1137,30092021,PreComm_Task,None,
26,Volatile,20,39,7,52,19,19,13,6.389009963997520,TRUE,FALSE,FALSE,FALSE,0,0,0.8,0.8,TRUE,FALSE,FALSE,17.028514970006700,FALSE,FALSE,TRUE,0,FALSE,FALSE,FALSE,52,1137,30092021,PreComm_Task,None,
27,Volatile,44,43,57,30,1,1,13,6.064845897999480,TRUE,FALSE,FALSE,FALSE,0,0,0.5,0.9,TRUE,FALSE,FALSE,16.523105754997200,FALSE,FALSE,TRUE,0,FALSE,FALSE,FALSE,30,1137,30092021,PreComm_Task,None,
28,Volatile,43,62,59,46,23,19,-16,6.136296629003480,TRUE,FALSE,FALSE,TRUE,0.8118172730028160,15.336083474001500,0.4,1.0,FALSE,TRUE,FALSE,0,FALSE,FALSE,FALSE,0,FALSE,FALSE,FALSE,59,1137,30092021,PreComm_Task,None,
29,Volatile,59,78,70,67,21,19,-11,5.624200171994740,TRUE,FALSE,FALSE,TRUE,0.8018538070027720,15.224630049997400,0.8,0.9,FALSE,TRUE,FALSE,0,FALSE,FALSE,FALSE,0,FALSE,FALSE,FALSE,70,1137,30092021,PreComm_Task,None,
30,Volatile,35,54,48,41,22,19,-13,5.720092902993200,TRUE,FALSE,FALSE,FALSE,0,0,0.2,0.8,TRUE,FALSE,FALSE,15.776143102994000,FALSE,FALSE,TRUE,0,FALSE,FALSE,FALSE,41,1137,30092021,PreComm_Task,None,
31,Volatile,53,46,64,35,8,7,11,6.37379313200654,TRUE,FALSE,FALSE,TRUE,0.7384907889936590,15.523295334001900,0.4,0.9,FALSE,TRUE,FALSE,0,FALSE,FALSE,FALSE,0,FALSE,FALSE,FALSE,64,1137,30092021,PreComm_Task,None,
32,Volatile,55,74,44,85,20,19,11,5.975728670004170,TRUE,FALSE,FALSE,TRUE,0.7060382249910620,14.87904522800820,0.2,0.8,FALSE,FALSE,TRUE,0,FALSE,FALSE,FALSE,0,FALSE,FALSE,FALSE,85,1137,30092021,PreComm_Task,None,
33,Volatile,38,31,25,44,10,7,-13,5.753366827004360,TRUE,FALSE,FALSE,FALSE,0,0,0.7,0.7000000000000000,TRUE,FALSE,FALSE,16.18756046499770,FALSE,TRUE,FALSE,0,FALSE,FALSE,FALSE,25,1137,30092021,PreComm_Task,None,
34,Volatile,77,64,64,77,16,13,-13,5.5772613330045700,TRUE,FALSE,FALSE,FALSE,0,0,1.0,0.8,TRUE,FALSE,FALSE,16.42314214599900,FALSE,FALSE,TRUE,0,FALSE,FALSE,FALSE,77,1137,30092021,PreComm_Task,None,
35,Volatile,60,61,71,50,3,1,-11,5.49448932800442,TRUE,FALSE,FALSE,TRUE,0.795821509003872,14.594916296002300,0.3,0.9,FALSE,TRUE,FALSE,0,FALSE,FALSE,FALSE,0,FALSE,FALSE,FALSE,71,1137,30092021,PreComm_Task,None,
36,Volatile,70,51,86,35,18,19,16,6.410289159990500,TRUE,FALSE,FALSE,FALSE,0,0,0.8,0.8,TRUE,FALSE,FALSE,17.048264653989500,FALSE,TRUE,FALSE,0,FALSE,FALSE,FALSE,86,1137,30092021,PreComm_Task,None,
37,Volatile,24,37,35,26,15,13,-11,5.892609987990000,TRUE,FALSE,FALSE,TRUE,0.836756926990347,15.143502304999900,0.4,0.9,FALSE,TRUE,FALSE,0,FALSE,FALSE,FALSE,0,FALSE,FALSE,FALSE,35,1137,30092021,PreComm_Task,None,
38,Volatile,45,46,29,62,0,1,16,5.513663705001820,TRUE,FALSE,FALSE,FALSE,0,0,0.4,0.8,TRUE,FALSE,FALSE,15.753228097004500,FALSE,TRUE,FALSE,0,FALSE,FALSE,FALSE,29,1137,30092021,PreComm_Task,None,
39,Volatile,43,30,27,46,17,13,-16,5.702707182004820,TRUE,FALSE,FALSE,TRUE,0.859589647006942,14.753697524007300,0.2,0.9,FALSE,FALSE,TRUE,0,FALSE,FALSE,FALSE,0,FALSE,FALSE,FALSE,46,1137,30092021,PreComm_Task,None,
40,Volatile,50,63,34,79,12,13,16,7.072604799992410,TRUE,FALSE,FALSE,FALSE,0,0,1.0,0.8,TRUE,FALSE,FALSE,17.92678196799530,FALSE,FALSE,TRUE,0,FALSE,FALSE,FALSE,79,1137,30092021,PreComm_Task,None,
41,Volatile,33,32,17,48,5,1,-16,5.096958276990340,TRUE,FALSE,FALSE,TRUE,0.8999995040067010,14.601806464997900,0.6,0.9,FALSE,FALSE,TRUE,0,FALSE,FALSE,FALSE,0,FALSE,FALSE,FALSE,48,1137,30092021,PreComm_Task,None,
42,Volatile,44,57,33,68,14,13,11,5.525664059998240,TRUE,FALSE,FALSE,TRUE,0.7923213189933450,14.627078862002200,0.3,0.8,FALSE,FALSE,TRUE,0,FALSE,FALSE,FALSE,0,FALSE,FALSE,FALSE,68,1137,30092021,PreComm_Task,None,
43,Volatile,63,64,76,51,4,1,-13,5.57228970999131,TRUE,FALSE,FALSE,FALSE,0,0,0.3,0.7000000000000000,TRUE,FALSE,FALSE,15.63563341400000,FALSE,TRUE,FALSE,0,FALSE,FALSE,FALSE,76,1137,30092021,PreComm_Task,None,
44,Volatile,23,36,10,49,13,13,13,5.194140908002740,TRUE,FALSE,FALSE,TRUE,0.7033734370052120,14.7957495580049,0.9,0.8,FALSE,FALSE,TRUE,0,FALSE,FALSE,FALSE,0,FALSE,FALSE,FALSE,49,1137,30092021,PreComm_Task,None,
45,Volatile,63,70,74,59,9,7,-11,5.4608187199919500,TRUE,FALSE,FALSE,FALSE,0,0,0.4,0.7000000000000000,TRUE,FALSE,FALSE,15.612163411991800,FALSE,TRUE,FALSE,0,FALSE,FALSE,FALSE,74,1137,30092021,PreComm_Task,None,
46,Volatile,33,40,20,53,7,7,13,5.493601990994650,TRUE,FALSE,FALSE,TRUE,0.7881350520037810,14.494220673004700,0.2,0.8,FALSE,FALSE,TRUE,0,FALSE,FALSE,FALSE,0,FALSE,FALSE,FALSE,53,1137,30092021,PreComm_Task,None,
47,Volatile,62,63,51,74,2,1,11,7.125117995994520,TRUE,FALSE,FALSE,FALSE,0,0,0.8,0.7000000000000000,TRUE,FALSE,FALSE,17.67800881799490,FALSE,FALSE,TRUE,0,FALSE,FALSE,FALSE,74,1137,30092021,PreComm_Task,None,
48,Volatile,29,22,13,38,11,7,-16,5.8981917280034400,TRUE,FALSE,FALSE,TRUE,0.7096873620030240,15.099157449003500,0.5,0.8,FALSE,FALSE,TRUE,0,FALSE,FALSE,FALSE,0,FALSE,FALSE,FALSE,38,1137,30092021,PreComm_Task,None,
49,Volatile,30,43,14,59,12,13,16,28.6607971140038,TRUE,FALSE,FALSE,FALSE,0,0,0.3,0.7000000000000000,TRUE,FALSE,FALSE,38.723101462004700,FALSE,FALSE,TRUE,0,FALSE,FALSE,FALSE,59,1137,30092021,PreComm_Task,None,
50,Volatile,55,62,42,75,7,7,13,5.644878733990480,TRUE,FALSE,FALSE,FALSE,0,0,0.5,0.8,TRUE,FALSE,FALSE,16.007193120996800,FALSE,FALSE,TRUE,0,FALSE,FALSE,FALSE,75,1137,30092021,PreComm_Task,None,
51,Volatile,21,40,8,53,19,19,13,5.5787628649995900,TRUE,FALSE,FALSE,TRUE,0.7646305340022080,14.928874581994000,0.6,0.9,FALSE,FALSE,TRUE,0,FALSE,FALSE,FALSE,0,FALSE,FALSE,FALSE,53,1137,30092021,PreComm_Task,None,
52,Volatile,29,22,18,33,9,7,-11,5.724424934000130,TRUE,FALSE,FALSE,FALSE,0,0,0.7,0.8,TRUE,FALSE,FALSE,16.30273072500130,FALSE,TRUE,FALSE,0,FALSE,FALSE,FALSE,18,1137,30092021,PreComm_Task,None,
53,Volatile,58,71,71,58,16,13,-13,5.470222247997300,TRUE,FALSE,FALSE,TRUE,0.7477468699944440,14.72054181000570,0.5,0.9,FALSE,TRUE,FALSE,0,FALSE,FALSE,FALSE,0,FALSE,FALSE,FALSE,71,1137,30092021,PreComm_Task,None,
54,Volatile,24,43,13,54,20,19,11,8.060203664994330,TRUE,FALSE,FALSE,TRUE,0.758422006998444,17.510638970998100,0.7,0.8,FALSE,FALSE,TRUE,0,FALSE,FALSE,FALSE,0,FALSE,FALSE,FALSE,54,1137,30092021,PreComm_Task,None,
55,Volatile,52,59,41,70,8,7,11,5.6223316060059000,TRUE,FALSE,FALSE,FALSE,0,0,0.9,0.7000000000000000,TRUE,FALSE,FALSE,16.26393028900200,FALSE,TRUE,FALSE,0,FALSE,FALSE,FALSE,41,1137,30092021,PreComm_Task,None,
56,Volatile,52,65,39,78,13,13,13,5.493926719005690,TRUE,FALSE,FALSE,FALSE,0,0,0.6,0.8,TRUE,FALSE,FALSE,15.970627540999000,FALSE,FALSE,TRUE,0,FALSE,FALSE,FALSE,78,1137,30092021,PreComm_Task,None,
57,Volatile,61,74,72,63,15,13,-11,5.605186198998130,TRUE,FALSE,FALSE,FALSE,0,0,0.7,0.8,TRUE,FALSE,FALSE,16.15783594700040,FALSE,FALSE,TRUE,0,FALSE,FALSE,FALSE,63,1137,30092021,PreComm_Task,None,
58,Volatile,57,58,44,71,1,1,13,5.666757160011910,TRUE,FALSE,FALSE,TRUE,0.8451684760075300,14.717215770011500,0.2,0.9,FALSE,FALSE,TRUE,0,FALSE,FALSE,FALSE,0,FALSE,FALSE,FALSE,71,1137,30092021,PreComm_Task,None,
59,Volatile,83,64,72,75,21,19,-11,5.565820139992870,TRUE,FALSE,FALSE,FALSE,0,0,0.4,0.8,TRUE,FALSE,FALSE,15.827503748994800,FALSE,FALSE,TRUE,0,FALSE,FALSE,FALSE,75,1137,30092021,PreComm_Task,None,
60,Volatile,52,59,41,70,8,7,11,6.787903450007430,TRUE,FALSE,FALSE,TRUE,0.7450075420056240,16.33842214300240,0.8,0.9,FALSE,FALSE,TRUE,0,FALSE,FALSE,FALSE,0,FALSE,FALSE,FALSE,70,1137,30092021,PreComm_Task,None,
61,Volatile,36,55,20,71,18,19,16,5.60716026899172,TRUE,FALSE,FALSE,TRUE,0.7415628690068840,14.857244257000300,0.5,0.8,FALSE,FALSE,TRUE,0,FALSE,FALSE,FALSE,0,FALSE,FALSE,FALSE,71,1137,30092021,PreComm_Task,None,
62,Volatile,42,35,31,46,9,7,-11,5.476163715007720,TRUE,FALSE,FALSE,FALSE,0,0,0.2,0.7000000000000000,TRUE,FALSE,FALSE,15.433891822001900,FALSE,TRUE,FALSE,0,FALSE,FALSE,FALSE,31,1137,30092021,PreComm_Task,None,
63,Volatile,33,32,20,45,4,1,-13,5.536389483997480,TRUE,FALSE,FALSE,TRUE,0.7998504350107400,14.636707336001600,0.3,0.8,FALSE,FALSE,TRUE,0,FALSE,FALSE,FALSE,0,FALSE,FALSE,FALSE,45,1137,30092021,PreComm_Task,None,
64,Volatile,56,57,72,41,5,1,-16,5.562943519995320,TRUE,FALSE,FALSE,FALSE,0,0,0.4,0.7000000000000000,TRUE,FALSE,FALSE,15.726172994996900,FALSE,TRUE,FALSE,0,FALSE,FALSE,FALSE,72,1137,30092021,PreComm_Task,None,
65,Volatile,65,64,81,48,0,1,16,5.526715244996010,TRUE,FALSE,FALSE,TRUE,0.7195488550059960,15.077285610997900,0.8,0.8,FALSE,TRUE,FALSE,0,FALSE,FALSE,FALSE,0,FALSE,FALSE,FALSE,81,1137,30092021,PreComm_Task,None,
66,Volatile,53,40,69,24,12,13,16,5.778338773001450,TRUE,FALSE,FALSE,FALSE,0,0,0.4,0.7000000000000000,TRUE,FALSE,FALSE,15.915845128998600,FALSE,FALSE,TRUE,0,FALSE,FALSE,FALSE,24,1137,30092021,PreComm_Task,None,
67,Volatile,48,29,35,42,22,19,-13,6.3946229410066700,TRUE,FALSE,FALSE,FALSE,0,0,0.5,0.8,TRUE,FALSE,FALSE,16.72409659800180,FALSE,FALSE,TRUE,0,FALSE,FALSE,FALSE,42,1137,30092021,PreComm_Task,None,
68,Volatile,68,61,52,77,11,7,-16,6.110659703001150,TRUE,FALSE,FALSE,TRUE,0.8747984070068920,15.211183596009500,0.2,0.9,FALSE,FALSE,TRUE,0,FALSE,FALSE,FALSE,0,FALSE,FALSE,FALSE,77,1137,30092021,PreComm_Task,None,
69,Volatile,17,24,4,37,7,7,13,5.972019840002760,TRUE,FALSE,FALSE,TRUE,0.7960126620018860,15.270595894995500,0.5,0.8,FALSE,FALSE,FALSE,16.32851629400100,FALSE,FALSE,TRUE,0,FALSE,FALSE,FALSE,37,1137,30092021,PreComm_Task,None,
70,Volatile,64,57,80,41,6,7,16,8.296803424003880,FALSE,FALSE,TRUE,0,0,0,0,0.9,0,FALSE,FALSE,0,FALSE,FALSE,FALSE,0,FALSE,FALSE,FALSE,0,1137,30092021,PreComm_Task,None,
71,Volatile,27,40,16,51,14,13,11,5.11623646299995,TRUE,FALSE,FALSE,TRUE,0.8001240199955650,14.516608249003200,0.6,0.9,FALSE,FALSE,TRUE,0,FALSE,FALSE,FALSE,0,FALSE,FALSE,FALSE,51,1137,30092021,PreComm_Task,None,
72,Volatile,41,22,54,9,19,19,13,5.516165715001990,TRUE,FALSE,FALSE,TRUE,0.6971580390090820,14.918761944005400,0.7,0.8,FALSE,TRUE,FALSE,0,FALSE,FALSE,FALSE,0,FALSE,FALSE,FALSE,54,1137,30092021,PreComm_Task,None,
73,Volatile,44,25,55,14,20,19,11,5.569109513991860,TRUE,FALSE,FALSE,FALSE,0,0,1.0,0.7000000000000000,TRUE,FALSE,FALSE,16.33266385999740,FALSE,FALSE,TRUE,0,FALSE,FALSE,FALSE,14,1137,30092021,PreComm_Task,None,
74,Volatile,55,74,71,58,23,19,-16,5.537859000003660,TRUE,FALSE,FALSE,TRUE,0.750714092006092,15.088647866010400,0.8,0.8,FALSE,TRUE,FALSE,0,FALSE,FALSE,FALSE,0,FALSE,FALSE,FALSE,71,1137,30092021,PreComm_Task,None,
75,Volatile,71,58,58,71,16,13,-13,5.663272465011690,TRUE,FALSE,FALSE,FALSE,0,0,0.8,0.7000000000000000,TRUE,FALSE,FALSE,16.256085619999800,FALSE,TRUE,FALSE,0,FALSE,FALSE,FALSE,58,1137,30092021,PreComm_Task,None,
76,Volatile,54,53,65,42,2,1,11,5.7496640470053500,TRUE,FALSE,FALSE,TRUE,0.7475727980054220,15.10454957500040,0.6,0.8,FALSE,TRUE,FALSE,0,FALSE,FALSE,FALSE,0,FALSE,FALSE,FALSE,65,1137,30092021,PreComm_Task,None,
77,Volatile,38,51,54,35,17,13,-16,6.110301556997000,TRUE,FALSE,FALSE,FALSE,0,0,0.3,0.7000000000000000,TRUE,FALSE,FALSE,16.164107158998400,FALSE,FALSE,TRUE,0,FALSE,FALSE,FALSE,35,1137,30092021,PreComm_Task,None,
78,Volatile,55,54,44,65,3,1,-11,5.6473614889982900,TRUE,FALSE,FALSE,FALSE,0,0,0.2,0.8,TRUE,FALSE,FALSE,15.691678383009300,FALSE,FALSE,TRUE,0,FALSE,FALSE,FALSE,65,1137,30092021,PreComm_Task,None,
79,Volatile,74,61,87,48,13,13,13,5.59170770199853,TRUE,FALSE,FALSE,TRUE,0.8341093860071850,14.842242670012600,0.4,0.9,FALSE,TRUE,FALSE,0,FALSE,FALSE,FALSE,0,FALSE,FALSE,FALSE,87,1137,30092021,PreComm_Task,None,
80,Volatile,62,55,49,68,10,7,-13,6.929445471003420,TRUE,FALSE,FALSE,FALSE,0,0,0.7,0.8,TRUE,FALSE,FALSE,17.51774147200920,FALSE,FALSE,TRUE,0,FALSE,FALSE,FALSE,68,1137,30092021,PreComm_Task,None,
81,Volatile,35,16,46,5,20,19,11,8.402053815996620,TRUE,FALSE,FALSE,TRUE,0.8320316860044840,17.553940704005100,0.3,0.9,FALSE,TRUE,FALSE,0,FALSE,FALSE,FALSE,0,FALSE,FALSE,FALSE,46,1137,30092021,PreComm_Task,None,
82,Volatile,65,64,76,53,2,1,11,5.831176615000000,TRUE,FALSE,FALSE,TRUE,0.7557065989967670,14.77939166399300,0.2,0.8,FALSE,TRUE,FALSE,0,FALSE,FALSE,FALSE,0,FALSE,FALSE,FALSE,76,1137,30092021,PreComm_Task,None,
83,Volatile,44,51,57,38,10,7,-13,5.613391893013610,TRUE,FALSE,FALSE,FALSE,0,0,1.0,0.7000000000000000,TRUE,FALSE,FALSE,16.368119054008300,FALSE,TRUE,FALSE,0,FALSE,FALSE,FALSE,57,1137,30092021,PreComm_Task,None,
84,Volatile,46,65,33,78,19,19,13,5.762042989008480,TRUE,FALSE,FALSE,TRUE,0.7605646390002220,15.312661166011800,0.8,0.8,FALSE,FALSE,TRUE,0,FALSE,FALSE,FALSE,0,FALSE,FALSE,FALSE,78,1137,30092021,PreComm_Task,None,
85,Volatile,40,59,51,48,21,19,-11,5.664422048997950,TRUE,FALSE,FALSE,FALSE,0,0,0.6,0.7000000000000000,TRUE,FALSE,FALSE,16.009752395009900,FALSE,FALSE,TRUE,0,FALSE,FALSE,FALSE,48,1137,30092021,PreComm_Task,None,
86,Volatile,75,62,88,49,13,13,13,5.442719851998850,TRUE,FALSE,FALSE,TRUE,0.7953396939992670,14.742419887988900,0.5,0.8,FALSE,TRUE,FALSE,0,FALSE,FALSE,FALSE,0,FALSE,FALSE,FALSE,88,1137,30092021,PreComm_Task,None,
87,Volatile,65,64,54,75,3,1,-11,5.776524999993850,TRUE,FALSE,FALSE,FALSE,0,0,0.8,0.7000000000000000,TRUE,FALSE,FALSE,16.347689115005800,FALSE,TRUE,FALSE,0,FALSE,FALSE,FALSE,54,1137,30092021,PreComm_Task,None,
88,Volatile,60,47,76,31,12,13,16,6.175019782007440,TRUE,FALSE,FALSE,TRUE,0.7817680590087550,15.57580239001250,0.6,0.8,FALSE,TRUE,FALSE,0,FALSE,FALSE,FALSE,0,FALSE,FALSE,FALSE,76,1137,30092021,PreComm_Task,None,
89,Volatile,64,71,75,60,9,7,-11,5.312793545992460,TRUE,FALSE,FALSE,FALSE,0,0,0.4,0.7000000000000000,TRUE,FALSE,FALSE,15.527422629995300,FALSE,TRUE,FALSE,0,FALSE,FALSE,FALSE,75,1137,30092021,PreComm_Task,None,
90,Volatile,49,36,38,47,15,13,-11,5.6786774399952300,TRUE,FALSE,FALSE,FALSE,0,0,0.3,0.8,TRUE,FALSE,FALSE,15.832968713002600,FALSE,TRUE,FALSE,0,FALSE,FALSE,FALSE,38,1137,30092021,PreComm_Task,None,
91,Volatile,57,38,73,22,18,19,16,5.642756420013030,TRUE,FALSE,FALSE,TRUE,0.7669159479992230,15.04324063801320,0.6,0.9,FALSE,TRUE,FALSE,0,FALSE,FALSE,FALSE,0,FALSE,FALSE,FALSE,73,1137,30092021,PreComm_Task,None,
92,Volatile,63,64,76,51,4,1,-13,5.9178504690062300,TRUE,FALSE,FALSE,TRUE,0.78262905999145,15.017917071003500,0.3,0.8,FALSE,TRUE,FALSE,0,FALSE,FALSE,FALSE,0,FALSE,FALSE,FALSE,76,1137,30092021,PreComm_Task,None,
93,Volatile,64,57,48,73,11,7,-16,5.727207092990280,TRUE,FALSE,FALSE,FALSE,0,0,0.9,0.7000000000000000,TRUE,FALSE,FALSE,16.403200223998300,FALSE,FALSE,TRUE,0,FALSE,FALSE,FALSE,73,1137,30092021,PreComm_Task,None,
94,Volatile,33,20,44,9,14,13,11,5.480982060005770,TRUE,FALSE,FALSE,FALSE,0,0,0.3,0.8,TRUE,FALSE,FALSE,15.647334542998600,FALSE,TRUE,FALSE,0,FALSE,FALSE,FALSE,44,1137,30092021,PreComm_Task,None,
95,Volatile,28,47,41,34,22,19,-13,5.6261269509996100,TRUE,FALSE,FALSE,TRUE,0.8293986099888570,15.176309022004700,0.7,0.9,FALSE,TRUE,FALSE,0,FALSE,FALSE,FALSE,0,FALSE,FALSE,FALSE,41,1137,30092021,PreComm_Task,None,
96,Volatile,38,45,25,58,7,7,13,6.321540645003550,TRUE,FALSE,FALSE,TRUE,0.7903370109997920,15.721373548993100,0.6,0.8,FALSE,FALSE,TRUE,0,FALSE,FALSE,FALSE,0,FALSE,FALSE,FALSE,58,1137,30092021,PreComm_Task,None,