TrialNumber,Condition,OptionA,OptionB,EndA,EndB,combination,difference,change,Choice_RT,Choice_Wait,Choice_Commit,Choice_Miss,Press_hit,Play_RT,RT_trialClock_play,ITI_play,Square_timing,Press_miss,Play_win_A,Play_win_B,Late_RT,Play_lost,Play_lost_chosenA,Play_lost_chosenB,Precomm_RT,Precomm_B,Precomm_A,Precomm_miss,Earnings,participant,date,expName,frameRate,
1,Volatile,19,32,32,19,16,13,-13,6.857435886980970,FALSE,TRUE,FALSE,0,0,0,0,0.8,0,FALSE,FALSE,0,FALSE,FALSE,FALSE,10.599635011982200,TRUE,FALSE,FALSE,19,1147,14102021,PreComm_Task,None,
2,Volatile,71,64,84,51,7,7,13,6.7158121000102300,TRUE,FALSE,FALSE,FALSE,0,0,0.8,0.8,TRUE,FALSE,FALSE,17.35239361700950,FALSE,FALSE,TRUE,0,FALSE,FALSE,FALSE,51,1147,14102021,PreComm_Task,None,
3,Volatile,51,50,62,39,2,1,11,7.456251572992190,TRUE,FALSE,FALSE,FALSE,0,0,0.4,0.9,TRUE,FALSE,FALSE,17.808760857005800,FALSE,TRUE,FALSE,0,FALSE,FALSE,FALSE,62,1147,14102021,PreComm_Task,None,
4,Volatile,38,51,54,35,17,13,-16,8.478467631008240,FALSE,FALSE,TRUE,0,0,0,0,1.0,0,FALSE,FALSE,0,FALSE,FALSE,FALSE,0,FALSE,FALSE,FALSE,0,1147,14102021,PreComm_Task,None,
5,Volatile,37,56,50,43,22,19,-13,6.3724238889990400,FALSE,TRUE,FALSE,0,0,0,0,1.0,0,FALSE,FALSE,0,FALSE,FALSE,FALSE,9.721838998986640,TRUE,FALSE,FALSE,43,1147,14102021,PreComm_Task,None,
6,Volatile,39,26,55,10,12,13,16,7.1456817210128100,TRUE,FALSE,FALSE,FALSE,0,0,0.6,1.0,TRUE,FALSE,FALSE,17.785311876010400,FALSE,FALSE,TRUE,0,FALSE,FALSE,FALSE,10,1147,14102021,PreComm_Task,None,
7,Volatile,55,48,44,59,9,7,-11,6.546000239002750,TRUE,FALSE,FALSE,FALSE,0,0,0.9,1.1,TRUE,FALSE,FALSE,17.578579930006500,FALSE,TRUE,FALSE,0,FALSE,FALSE,FALSE,44,1147,14102021,PreComm_Task,None,
8,Volatile,54,35,70,19,18,19,16,6.906005104014180,FALSE,TRUE,FALSE,0,0,0,0,1.2000000000000000,0,FALSE,FALSE,0,FALSE,FALSE,FALSE,11.471549100009700,FALSE,FALSE,TRUE,0,1147,14102021,PreComm_Task,None,
9,Volatile,31,32,15,48,0,1,16,7.256863953982250,TRUE,FALSE,FALSE,FALSE,0,0,0.6,1.2000000000000000,TRUE,FALSE,FALSE,18.111054292996400,FALSE,TRUE,FALSE,0,FALSE,FALSE,FALSE,15,1147,14102021,PreComm_Task,None,
10,Volatile,53,60,37,76,6,7,16,7.01568193998537,FALSE,TRUE,FALSE,0,0,0,0,1.3000000000000000,0,FALSE,FALSE,0,FALSE,FALSE,FALSE,10.764828774990700,TRUE,FALSE,FALSE,76,1147,14102021,PreComm_Task,None,
11,Volatile,32,25,43,14,8,7,11,7.614427452994280,TRUE,FALSE,FALSE,FALSE,0,0,0.4,1.3000000000000000,TRUE,FALSE,FALSE,18.370403039007200,FALSE,TRUE,FALSE,0,FALSE,FALSE,FALSE,43,1147,14102021,PreComm_Task,None,
12,Volatile,55,36,68,23,19,19,13,6.70391036500223,TRUE,FALSE,FALSE,FALSE,0,0,0.6,1.4000000000000000,TRUE,FALSE,FALSE,17.733086883992700,FALSE,FALSE,TRUE,0,FALSE,FALSE,FALSE,23,1147,14102021,PreComm_Task,None,
13,Volatile,62,69,75,56,10,7,-13,6.531124975008420,TRUE,FALSE,FALSE,FALSE,0,0,0.2,1.5000000000000000,TRUE,FALSE,FALSE,17.275036100007100,FALSE,TRUE,FALSE,0,FALSE,FALSE,FALSE,75,1147,14102021,PreComm_Task,None,
14,Volatile,36,49,23,62,13,13,13,7.176359065982980,FALSE,TRUE,FALSE,0,0,0,0,1.6000000000000000,0,FALSE,FALSE,0,FALSE,FALSE,FALSE,9.827657194982750,TRUE,FALSE,FALSE,62,1147,14102021,PreComm_Task,None,
15,Volatile,44,25,55,14,20,19,11,7.2449318550061400,FALSE,TRUE,FALSE,0,0,0,0,1.6000000000000000,0,FALSE,FALSE,0,FALSE,FALSE,FALSE,11.827624714002000,FALSE,FALSE,TRUE,0,1147,14102021,PreComm_Task,None,
16,Volatile,51,52,64,39,4,1,-13,7.049216995976170,TRUE,FALSE,FALSE,TRUE,1.333360440999970,17.39707136299690,1.0,1.6000000000000000,FALSE,FALSE,FALSE,0,FALSE,FALSE,FALSE,0,FALSE,FALSE,FALSE,0,1147,14102021,PreComm_Task,None,
17,Volatile,33,34,44,23,3,1,-11,6.778746328986020,TRUE,FALSE,FALSE,TRUE,1.4118065499933400,16.578477114002500,0.4,1.5000000000000000,FALSE,FALSE,FALSE,0,FALSE,FALSE,FALSE,0,FALSE,FALSE,FALSE,0,1147,14102021,PreComm_Task,None,
18,Volatile,53,52,37,68,5,1,-16,7.292716380994530,FALSE,TRUE,FALSE,0,0,0,0,1.4000000000000000,0,FALSE,FALSE,0,FALSE,FALSE,FALSE,10.191918969008800,FALSE,TRUE,FALSE,37,1147,14102021,PreComm_Task,None,
19,Volatile,43,24,27,40,23,19,-16,6.999631690996470,FALSE,TRUE,FALSE,0,0,0,0,1.4000000000000000,0,FALSE,FALSE,0,FALSE,FALSE,FALSE,10.048180441983300,FALSE,TRUE,FALSE,27,1147,14102021,PreComm_Task,None,
20,Volatile,28,35,44,19,11,7,-16,8.334853842010490,FALSE,FALSE,TRUE,0,0,0,0,1.4000000000000000,0,FALSE,FALSE,0,FALSE,FALSE,FALSE,0,FALSE,TRUE,FALSE,0,1147,14102021,PreComm_Task,None,
21,Volatile,57,56,70,43,1,1,13,7.538418192998510,FALSE,TRUE,FALSE,0,0,0,0,1.4000000000000000,0,FALSE,FALSE,0,FALSE,FALSE,FALSE,10.28519771801080,FALSE,TRUE,FALSE,70,1147,14102021,PreComm_Task,None,
22,Volatile,62,75,51,86,14,13,11,7.887719934980850,FALSE,TRUE,FALSE,0,0,0,0,1.4000000000000000,0,FALSE,FALSE,0,FALSE,FALSE,FALSE,11.187448343989700,TRUE,FALSE,FALSE,86,1147,14102021,PreComm_Task,None,
23,Volatile,55,36,44,47,21,19,-11,8.050859912007580,TRUE,FALSE,FALSE,TRUE,1.1470695369935100,17.999155062018000,0.8,1.4000000000000000,FALSE,FALSE,TRUE,0,FALSE,FALSE,FALSE,0,FALSE,FALSE,FALSE,47,1147,14102021,PreComm_Task,None,
24,Volatile,70,57,59,68,15,13,-11,8.339068034023510,FALSE,FALSE,TRUE,0,0,0,0,1.3000000000000000,0,FALSE,TRUE,0,FALSE,FALSE,FALSE,0,FALSE,FALSE,FALSE,0,1147,14102021,PreComm_Task,None,
25,Volatile,27,40,14,53,13,13,13,6.945267819974110,TRUE,FALSE,FALSE,TRUE,1.290314268990190,16.948223868996100,0.7,1.3000000000000000,FALSE,FALSE,FALSE,17.992239968996700,FALSE,FALSE,TRUE,0,FALSE,FALSE,FALSE,53,1147,14102021,PreComm_Task,None,
26,Volatile,47,54,60,41,10,7,-13,7.757029872998830,FALSE,TRUE,FALSE,0,0,0,0,1.4000000000000000,0,FALSE,FALSE,0,FALSE,FALSE,FALSE,10.656024555995800,TRUE,FALSE,FALSE,41,1147,14102021,PreComm_Task,None,
27,Volatile,25,26,14,37,2,1,11,6.924412677995860,TRUE,FALSE,FALSE,FALSE,0,0,0.6,1.4000000000000000,TRUE,FALSE,FALSE,17.963186273991600,FALSE,FALSE,TRUE,0,FALSE,FALSE,FALSE,37,1147,14102021,PreComm_Task,None,
28,Volatile,18,25,34,9,11,7,-16,7.1336336620152,TRUE,FALSE,FALSE,FALSE,0,0,0.5,1.5000000000000000,TRUE,FALSE,FALSE,18.17309198100700,FALSE,TRUE,FALSE,0,FALSE,FALSE,FALSE,34,1147,14102021,PreComm_Task,None,
29,Volatile,43,50,30,63,7,7,13,6.834484384016830,TRUE,FALSE,FALSE,FALSE,0,0,0.8,1.6000000000000000,TRUE,FALSE,FALSE,18.3052673220227,FALSE,FALSE,TRUE,0,FALSE,FALSE,FALSE,63,1147,14102021,PreComm_Task,None,
30,Volatile,56,55,43,68,4,1,-13,7.0471538770070800,TRUE,FALSE,FALSE,FALSE,0,0,0.2,1.7000000000000000,TRUE,FALSE,FALSE,17.98656160500830,FALSE,FALSE,TRUE,0,FALSE,FALSE,FALSE,68,1147,14102021,PreComm_Task,None,
31,Volatile,51,50,64,37,1,1,13,6.526983876014130,TRUE,FALSE,FALSE,TRUE,1.750276652019240,17.080647060007300,0.8,1.8000000000000000,FALSE,TRUE,FALSE,0,FALSE,FALSE,FALSE,0,FALSE,FALSE,FALSE,64,1147,14102021,PreComm_Task,None,
32,Volatile,72,59,83,48,14,13,11,8.451850040000860,FALSE,FALSE,TRUE,0,0,0,0,1.7000000000000000,0,TRUE,FALSE,0,FALSE,FALSE,FALSE,0,FALSE,FALSE,FALSE,0,1147,14102021,PreComm_Task,None,
33,Volatile,42,61,26,77,18,19,16,6.8922167050186500,FALSE,TRUE,FALSE,0,0,0,0,1.7000000000000000,0,FALSE,FALSE,0,FALSE,FALSE,FALSE,10.743266069010100,TRUE,FALSE,FALSE,77,1147,14102021,PreComm_Task,None,
34,Volatile,55,62,39,78,6,7,16,6.816355480987110,FALSE,TRUE,FALSE,0,0,0,0,1.7000000000000000,0,FALSE,FALSE,0,FALSE,FALSE,FALSE,11.383959364990000,FALSE,FALSE,TRUE,0,1147,14102021,PreComm_Task,None,
35,Volatile,18,37,5,50,19,19,13,6.989896045008210,FALSE,TRUE,FALSE,0,0,0,0,1.7000000000000000,0,FALSE,FALSE,0,FALSE,FALSE,FALSE,10.89022672601280,TRUE,FALSE,FALSE,50,1147,14102021,PreComm_Task,None,
36,Volatile,63,56,74,45,8,7,11,6.72603507299209,TRUE,FALSE,FALSE,TRUE,1.4243130729883000,16.927428848983300,0.8,1.7000000000000000,FALSE,TRUE,FALSE,0,FALSE,FALSE,FALSE,0,FALSE,FALSE,FALSE,74,1147,14102021,PreComm_Task,None,
37,Volatile,50,37,37,50,16,13,-13,8.303004446002890,FALSE,FALSE,TRUE,0,0,0,0,1.6000000000000000,0,TRUE,FALSE,0,FALSE,FALSE,FALSE,0,FALSE,FALSE,FALSE,0,1147,14102021,PreComm_Task,None,
38,Volatile,66,53,50,69,17,13,-16,6.349848164973080,TRUE,FALSE,FALSE,FALSE,0,0,0.6,1.6000000000000000,TRUE,FALSE,FALSE,17.589387661981200,FALSE,FALSE,TRUE,0,FALSE,FALSE,FALSE,69,1147,14102021,PreComm_Task,None,
39,Volatile,41,34,30,45,9,7,-11,7.348118902998980,TRUE,FALSE,FALSE,TRUE,0.7689554679964200,16.59857822099000,0.5,1.7000000000000000,FALSE,FALSE,TRUE,0,FALSE,FALSE,FALSE,0,FALSE,FALSE,FALSE,45,1147,14102021,PreComm_Task,None,
40,Volatile,82,63,71,74,21,19,-11,7.9736345970013600,FALSE,TRUE,FALSE,0,0,0,0,1.6000000000000000,0,FALSE,FALSE,0,FALSE,FALSE,FALSE,11.273462045006500,FALSE,TRUE,FALSE,71,1147,14102021,PreComm_Task,None,
41,Volatile,45,32,34,43,15,13,-11,6.3085064819897500,TRUE,FALSE,FALSE,TRUE,1.5668586969841300,16.757326551975000,0.9,1.6000000000000000,FALSE,FALSE,TRUE,0,FALSE,FALSE,FALSE,0,FALSE,FALSE,FALSE,43,1147,14102021,PreComm_Task,None,
42,Volatile,37,36,21,52,5,1,-16,7.663439195021060,TRUE,FALSE,FALSE,TRUE,1.201216002984440,17.16285740400780,0.3,1.5000000000000000,FALSE,FALSE,TRUE,0,FALSE,FALSE,FALSE,0,FALSE,FALSE,FALSE,52,1147,14102021,PreComm_Task,None,
43,Volatile,39,38,55,22,0,1,16,8.275270329992050,FALSE,FALSE,TRUE,0,0,0,0,1.4000000000000000,0,FALSE,TRUE,0,FALSE,FALSE,FALSE,0,FALSE,FALSE,FALSE,0,1147,14102021,PreComm_Task,None,
44,Volatile,79,60,66,73,22,19,-13,6.930328449991070,TRUE,FALSE,FALSE,FALSE,0,0,0.2,1.4000000000000000,TRUE,FALSE,FALSE,17.57243280200060,FALSE,FALSE,TRUE,0,FALSE,FALSE,FALSE,73,1147,14102021,PreComm_Task,None,
45,Volatile,20,39,9,50,20,19,11,7.668268356996120,FALSE,TRUE,FALSE,0,0,0,0,1.5000000000000000,0,FALSE,FALSE,0,FALSE,FALSE,FALSE,11.715869044011900,TRUE,FALSE,FALSE,50,1147,14102021,PreComm_Task,None,
46,Volatile,45,46,56,35,3,1,-11,7.444409389980140,TRUE,FALSE,FALSE,FALSE,0,0,0.2,1.5000000000000000,TRUE,FALSE,FALSE,18.175594843982300,FALSE,FALSE,TRUE,0,FALSE,FALSE,FALSE,35,1147,14102021,PreComm_Task,None,
47,Volatile,56,37,40,53,23,19,-16,7.638593202980700,FALSE,TRUE,FALSE,0,0,0,0,1.6000000000000000,0,FALSE,FALSE,0,FALSE,FALSE,FALSE,10.887694248987800,FALSE,TRUE,FALSE,40,1147,14102021,PreComm_Task,None,
48,Volatile,46,59,30,75,12,13,16,7.436539439979240,TRUE,FALSE,FALSE,TRUE,1.40779521400691,17.139179641992100,0.3,1.6000000000000000,FALSE,FALSE,TRUE,0,FALSE,FALSE,FALSE,0,FALSE,FALSE,FALSE,75,1147,14102021,PreComm_Task,None,
49,Volatile,47,48,63,32,5,1,-16,12.416922486998400,FALSE,FALSE,TRUE,0,0,0,0,1.5000000000000000,0,FALSE,TRUE,0,FALSE,FALSE,FALSE,0,FALSE,FALSE,FALSE,0,1147,14102021,PreComm_Task,None,
50,Volatile,24,25,35,14,3,1,-11,6.735192979016570,TRUE,FALSE,FALSE,FALSE,0,0,0.5,1.5000000000000000,TRUE,FALSE,FALSE,17.784324734006100,FALSE,TRUE,FALSE,0,FALSE,FALSE,FALSE,35,1147,14102021,PreComm_Task,None,
51,Volatile,58,59,47,70,2,1,11,8.30008859600639,FALSE,FALSE,TRUE,0,0,0,0,1.6000000000000000,0,FALSE,FALSE,0,FALSE,FALSE,FALSE,0,FALSE,FALSE,FALSE,0,1147,14102021,PreComm_Task,None,
52,Volatile,56,55,43,68,4,1,-13,7.50694646401098,FALSE,TRUE,FALSE,0,0,0,0,1.6000000000000000,0,FALSE,FALSE,0,FALSE,FALSE,FALSE,10.603030766011200,FALSE,TRUE,FALSE,43,1147,14102021,PreComm_Task,None,
53,Volatile,56,43,45,54,15,13,-11,6.844422073976600,TRUE,FALSE,FALSE,TRUE,1.5917626910086300,16.644580588996200,0.2,1.6000000000000000,FALSE,FALSE,TRUE,0,FALSE,FALSE,FALSE,0,FALSE,FALSE,FALSE,54,1147,14102021,PreComm_Task,None,
54,Volatile,40,47,56,31,11,7,-16,6.87318110401975,TRUE,FALSE,FALSE,FALSE,0,0,1.0,1.5000000000000000,TRUE,FALSE,FALSE,18.425462065002600,FALSE,TRUE,FALSE,0,FALSE,FALSE,FALSE,56,1147,14102021,PreComm_Task,None,
55,Volatile,24,43,13,54,20,19,11,8.366842821007590,FALSE,FALSE,TRUE,0,0,0,0,1.6000000000000000,0,FALSE,FALSE,0,FALSE,FALSE,FALSE,0,FALSE,FALSE,FALSE,0,1147,14102021,PreComm_Task,None,
56,Volatile,48,29,35,42,22,19,-13,5.688999083999080,TRUE,FALSE,FALSE,TRUE,1.416431935998840,15.59106722602160,0.5,1.6000000000000000,FALSE,FALSE,TRUE,0,FALSE,FALSE,FALSE,0,FALSE,FALSE,FALSE,42,1147,14102021,PreComm_Task,None,
57,Volatile,37,44,50,31,10,7,-13,6.762157832010420,TRUE,FALSE,FALSE,TRUE,1.3401131920109000,17.012456135009400,0.9,1.5000000000000000,FALSE,TRUE,FALSE,0,FALSE,FALSE,FALSE,0,FALSE,FALSE,FALSE,50,1147,14102021,PreComm_Task,None,
58,Volatile,31,44,47,28,17,13,-16,8.37385883499519,FALSE,FALSE,TRUE,0,0,0,0,1.4000000000000000,0,TRUE,FALSE,0,FALSE,FALSE,FALSE,0,FALSE,FALSE,FALSE,0,1147,14102021,PreComm_Task,None,
59,Volatile,59,40,43,56,23,19,-16,6.318675282993350,FALSE,TRUE,FALSE,0,0,0,0,1.4000000000000000,0,FALSE,FALSE,0,FALSE,FALSE,FALSE,8.368325118004580,FALSE,TRUE,FALSE,43,1147,14102021,PreComm_Task,None,
60,Volatile,56,69,43,82,13,13,13,6.294978835008810,FALSE,TRUE,FALSE,0,0,0,0,1.4000000000000000,0,FALSE,FALSE,0,FALSE,FALSE,FALSE,9.644759112008610,TRUE,FALSE,FALSE,82,1147,14102021,PreComm_Task,None,
61,Volatile,61,54,74,41,7,7,13,7.349696388002490,FALSE,TRUE,FALSE,0,0,0,0,1.4000000000000000,0,FALSE,FALSE,0,FALSE,FALSE,FALSE,11.924835643003500,FALSE,FALSE,TRUE,0,1147,14102021,PreComm_Task,None,
62,Volatile,26,45,10,61,18,19,16,7.352047886000950,FALSE,TRUE,FALSE,0,0,0,0,1.4000000000000000,0,FALSE,FALSE,0,FALSE,FALSE,FALSE,9.403695084998620,TRUE,FALSE,FALSE,61,1147,14102021,PreComm_Task,None,
63,Volatile,37,44,48,33,9,7,-11,7.2552161130006400,TRUE,FALSE,FALSE,FALSE,0,0,0.7,1.4000000000000000,TRUE,FALSE,FALSE,18.39425587502770,FALSE,FALSE,TRUE,0,FALSE,FALSE,FALSE,33,1147,14102021,PreComm_Task,None,
64,Volatile,40,21,53,8,19,19,13,6.376663828006710,FALSE,TRUE,FALSE,0,0,0,0,1.5000000000000000,0,FALSE,FALSE,0,FALSE,FALSE,FALSE,8.225684334989640,FALSE,TRUE,FALSE,53,1147,14102021,PreComm_Task,None,
65,Volatile,61,48,72,37,14,13,11,7.548065507988210,TRUE,FALSE,FALSE,TRUE,1.4026888159860400,17.748463633994100,0.8,1.5000000000000000,FALSE,TRUE,FALSE,0,FALSE,FALSE,FALSE,0,FALSE,FALSE,FALSE,72,1147,14102021,PreComm_Task,None,
66,Volatile,62,55,73,44,8,7,11,7.275973798998170,FALSE,TRUE,FALSE,0,0,0,0,1.4000000000000000,0,FALSE,FALSE,0,FALSE,FALSE,FALSE,11.843845379015000,FALSE,FALSE,TRUE,0,1147,14102021,PreComm_Task,None,
67,Volatile,43,62,54,51,21,19,-11,7.157981664000550,FALSE,TRUE,FALSE,0,0,0,0,1.4000000000000000,0,FALSE,FALSE,0,FALSE,FALSE,FALSE,10.456760043016400,TRUE,FALSE,FALSE,51,1147,14102021,PreComm_Task,None,
68,Volatile,62,61,78,45,0,1,16,8.098459097003800,TRUE,FALSE,FALSE,TRUE,1.2864720830111800,18.299107126978900,0.9,1.4000000000000000,FALSE,TRUE,FALSE,0,FALSE,FALSE,FALSE,0,FALSE,FALSE,FALSE,78,1147,14102021,PreComm_Task,None,
69,Volatile,52,39,68,23,12,13,16,8.33985138402204,FALSE,FALSE,TRUE,0,0,0,0,1.3000000000000000,0,TRUE,FALSE,0,FALSE,FALSE,FALSE,0,FALSE,FALSE,FALSE,0,1147,14102021,PreComm_Task,None,
70,Volatile,47,48,34,61,1,1,13,7.55987695598742,TRUE,FALSE,FALSE,FALSE,0,0,0.5,1.3000000000000000,TRUE,FALSE,FALSE,18.39785647499960,FALSE,TRUE,FALSE,0,FALSE,FALSE,FALSE,34,1147,14102021,PreComm_Task,None,
71,Volatile,39,26,26,39,16,13,-13,7.722255911998220,TRUE,FALSE,FALSE,TRUE,1.0654124160064400,17.47331569797830,0.7,1.4000000000000000,FALSE,FALSE,TRUE,0,FALSE,FALSE,FALSE,0,FALSE,FALSE,FALSE,39,1147,14102021,PreComm_Task,None,
72,Volatile,18,25,2,41,6,7,16,8.301809148018950,FALSE,FALSE,TRUE,0,0,0,0,1.3000000000000000,0,FALSE,TRUE,0,FALSE,FALSE,FALSE,0,FALSE,FALSE,FALSE,0,1147,14102021,PreComm_Task,None,
73,Volatile,29,16,16,29,16,13,-13,8.520436795981370,FALSE,FALSE,TRUE,0,0,0,0,1.3000000000000000,0,FALSE,TRUE,0,FALSE,FALSE,FALSE,0,FALSE,FALSE,FALSE,0,1147,14102021,PreComm_Task,None,
74,Volatile,56,37,43,50,22,19,-13,8.420450350997270,FALSE,FALSE,TRUE,0,0,0,0,1.3000000000000000,0,FALSE,TRUE,0,FALSE,FALSE,FALSE,0,FALSE,FALSE,FALSE,0,1147,14102021,PreComm_Task,None,
75,Volatile,44,37,31,50,10,7,-13,6.092410534998640,TRUE,FALSE,FALSE,TRUE,1.1971479750063700,16.294366248999700,1.0,1.3000000000000000,FALSE,FALSE,FALSE,17.416515906981700,FALSE,TRUE,FALSE,0,FALSE,FALSE,FALSE,31,1147,14102021,PreComm_Task,None,
76,Volatile,40,33,29,44,9,7,-11,7.237075451994320,TRUE,FALSE,FALSE,TRUE,1.2093397529970400,17.337183427007400,0.9,1.4000000000000000,FALSE,FALSE,TRUE,0,FALSE,FALSE,FALSE,0,FALSE,FALSE,FALSE,44,1147,14102021,PreComm_Task,None,
77,Volatile,63,62,76,49,1,1,13,0,TRUE,FALSE,FALSE,0,0,0,0,1.3000000000000000,0,FALSE,TRUE,0,FALSE,FALSE,FALSE,0,FALSE,FALSE,FALSE,44,1147,14102021,PreComm_Task,None,
78,Volatile,30,49,46,33,23,19,-16,7.596916987007720,TRUE,FALSE,FALSE,FALSE,0,0,1.0,1.3000000000000000,TRUE,FALSE,FALSE,18.977798078995000,FALSE,TRUE,FALSE,0,FALSE,FALSE,FALSE,46,1147,14102021,PreComm_Task,None,
79,Volatile,72,59,88,43,12,13,16,6.946437225997220,TRUE,FALSE,FALSE,TRUE,1.3652177199837800,16.547192239988400,0.2,1.4000000000000000,FALSE,FALSE,FALSE,0,FALSE,FALSE,FALSE,0,FALSE,FALSE,FALSE,0,1147,14102021,PreComm_Task,None,
80,Volatile,31,32,44,19,4,1,-13,0,TRUE,FALSE,FALSE,0,0,0,0,1.3000000000000000,0,FALSE,FALSE,0,FALSE,FALSE,FALSE,0,FALSE,FALSE,FALSE,0,1147,14102021,PreComm_Task,None,
81,Volatile,42,43,53,32,3,1,-11,0,TRUE,FALSE,FALSE,0,0,0,0,1.3000000000000000,0,FALSE,FALSE,0,FALSE,FALSE,FALSE,0,FALSE,FALSE,FALSE,0,1147,14102021,PreComm_Task,None,
82,Volatile,66,47,53,60,22,19,-13,7.75835280699539,FALSE,TRUE,FALSE,0,0,0,0,0.8,0,FALSE,FALSE,0,FALSE,FALSE,FALSE,10.50085363999820,FALSE,TRUE,FALSE,53,1147,14102021,PreComm_Task,None,
83,Volatile,40,59,51,48,21,19,-11,7.978957668994550,TRUE,FALSE,FALSE,TRUE,0.4020292539789810,17.379598136991300,1.0,0.8,FALSE,TRUE,FALSE,0,FALSE,FALSE,FALSE,0,FALSE,FALSE,FALSE,51,1147,14102021,PreComm_Task,None,
84,Volatile,53,72,37,88,18,19,16,7.12226145202294,FALSE,TRUE,FALSE,0,0,0,0,0.7000000000000000,0,FALSE,FALSE,0,FALSE,FALSE,FALSE,10.322264140006200,TRUE,FALSE,FALSE,88,1147,14102021,PreComm_Task,None,
85,Volatile,44,31,57,18,13,13,13,8.362469437997790,FALSE,TRUE,FALSE,0,0,0,0,0.7000000000000000,0,FALSE,FALSE,0,FALSE,FALSE,FALSE,11.661812637990800,FALSE,TRUE,FALSE,57,1147,14102021,PreComm_Task,None,
86,Volatile,61,42,72,31,20,19,11,6.972422758990430,FALSE,TRUE,FALSE,0,0,0,0,0.7000000000000000,0,FALSE,FALSE,0,FALSE,FALSE,FALSE,10.023953310999800,FALSE,TRUE,FALSE,72,1147,14102021,PreComm_Task,None,
87,Volatile,64,71,75,60,9,7,-11,7.235531516984340,TRUE,FALSE,FALSE,FALSE,0,0,0.4,0.7000000000000000,TRUE,FALSE,FALSE,17.399295256997000,FALSE,TRUE,FALSE,0,FALSE,FALSE,FALSE,75,1147,14102021,PreComm_Task,None,
88,Volatile,56,63,72,47,11,7,-16,8.507120701979150,FALSE,FALSE,TRUE,0,0,0,0,0.8,0,FALSE,FALSE,0,FALSE,FALSE,FALSE,0,FALSE,FALSE,FALSE,0,1147,14102021,PreComm_Task,None,
89,Volatile,35,48,24,59,14,13,11,8.458577619021530,FALSE,FALSE,TRUE,0,0,0,0,0.8,0,FALSE,FALSE,0,FALSE,FALSE,FALSE,0,FALSE,FALSE,FALSE,0,1147,14102021,PreComm_Task,None,
90,Volatile,21,28,5,44,6,7,16,8.511526296002560,FALSE,FALSE,TRUE,0,0,0,0,0.8,0,FALSE,FALSE,0,FALSE,FALSE,FALSE,0,FALSE,FALSE,FALSE,0,1147,14102021,PreComm_Task,None,
91,Volatile,18,37,34,21,23,19,-16,5.9974697239813400,FALSE,TRUE,FALSE,0,0,0,0,0.8,0,FALSE,FALSE,0,FALSE,FALSE,FALSE,7.697702627978290,TRUE,FALSE,FALSE,21,1147,14102021,PreComm_Task,None,
92,Volatile,20,21,7,34,1,1,13,6.563800389005340,TRUE,FALSE,FALSE,FALSE,0,0,0.3,0.8,TRUE,FALSE,FALSE,16.694323299016100,FALSE,FALSE,TRUE,0,FALSE,FALSE,FALSE,34,1147,14102021,PreComm_Task,None,
93,Volatile,19,26,6,39,7,7,13,6.274535463016950,FALSE,TRUE,FALSE,0,0,0,0,0.9,0,FALSE,FALSE,0,FALSE,FALSE,FALSE,9.324165074009220,TRUE,FALSE,FALSE,39,1147,14102021,PreComm_Task,None,
94,Volatile,46,45,35,56,3,1,-11,7.181379053014100,TRUE,FALSE,FALSE,FALSE,0,0,0.6,0.9,TRUE,FALSE,FALSE,17.735331324016400,FALSE,TRUE,FALSE,0,FALSE,FALSE,FALSE,35,1147,14102021,PreComm_Task,None,
95,Volatile,46,47,59,34,4,1,-13,6.440117846010250,TRUE,FALSE,FALSE,TRUE,0.9049697500013280,15.59042975801280,0.2,1.0,FALSE,TRUE,FALSE,0,FALSE,FALSE,FALSE,0,FALSE,FALSE,FALSE,59,1147,14102021,PreComm_Task,None,
96,Volatile,54,67,38,83,12,13,16,6.977921373007120,TRUE,FALSE,FALSE,FALSE,0,0,0.5,0.9,TRUE,FALSE,FALSE,17.40880195100910,FALSE,TRUE,FALSE,0,FALSE,FALSE,FALSE,38,1147,14102021,PreComm_Task,None,