TrialNumber,OptionA,OptionB,EndA,EndB,letter,difference,change,A_alwaysBest,B_alwaysBest,Best_changes,Choice_RT,Choice_Wait,Choice_Commit,Choice_Miss,Press_hit,Play_RT,RT_trialClock_play,ITI_play,Square_timing,Press_miss,Play_win_A,Play_win_B,Late_RT,Play_lost,Play_lost_chosenA,Play_lost_chosenB,Precomm_RT,Precomm_B,Precomm_A,Precomm_miss,Earnings,date,frameRate,expName,participant,
1,62,66,75,53,e,4,13,False,False,True,7.64349317551,False,True,False,0,0,0,0,0.25,0,False,False,0,False,False,False,10.69480896,True,False,False,53,12092019,60.0095859581,PreComm_Task,277,
2,55,75,58,72,m,20,3,False,True,False,7.68131804466,False,True,False,0,0,0,0,0.25,0,False,False,0,False,False,False,10.7326090336,False,False,True,0,12092019,60.0095859581,PreComm_Task,277,
3,61,81,74,68,q,20,13,False,False,True,7.66595292091,False,True,False,0,0,0,0,0.25,0,False,False,0,False,False,False,10.7164978981,True,False,False,68,12092019,60.0095859581,PreComm_Task,277,
4,21,49,34,36,w,28,13,False,True,False,7.66650009155,True,False,False,True,0.215756893158,16.4162361622,0.6,0.25,False,False,True,0,False,False,False,0,False,False,False,36,12092019,60.0095859581,PreComm_Task,277,
5,55,67,46,76,j,12,-9,False,True,False,7.6822810173,True,False,False,True,0.21896982193,16.3358118534,0.5,0.23,False,False,True,0,False,False,False,0,False,False,False,76,12092019,60.0095859581,PreComm_Task,277,
6,46,34,33,47,k,12,13,False,False,True,7.64940595627,True,False,False,False,0,0,1.2,0.21,True,False,False,18.0344061852,False,False,True,0,False,False,False,47,12092019,60.0095859581,PreComm_Task,277,
7,43,23,46,20,n,20,-3,True,False,False,7.64927506447,True,False,False,True,0.214859962463,16.7988369465,1.0,0.23,False,True,False,0,False,False,False,0,False,False,False,46,12092019,60.0095859581,PreComm_Task,277,
8,44,24,35,33,o,20,9,True,False,False,7.64951705933,True,False,False,False,0,0,0.7,0.21,True,False,False,17.5343980789,False,False,True,0,False,False,False,33,12092019,60.0095859581,PreComm_Task,277,
9,67,39,64,42,s,28,3,True,False,False,7.64935708046,True,False,False,True,0.21583199501,16.3998129368,0.6,0.23,False,True,False,0,False,False,False,0,False,False,False,64,12092019,60.0095859581,PreComm_Task,277,
10,63,51,66,48,h,12,-3,True,False,False,7.63282489777,True,False,False,False,0,0,0.4,0.21,True,False,False,17.2178471088,False,False,True,0,False,False,False,48,12092019,60.0095859581,PreComm_Task,277,
11,27,31,30,28,a,4,3,False,False,True,7.63293504715,False,True,False,0,0,0,0,0.23,0,False,False,0,False,False,False,10.682477951,True,False,False,28,12092019,60.0095859581,PreComm_Task,277,
12,44,40,53,31,d,4,-9,True,False,False,7.63268899918,False,True,False,0,0,0,0,0.23,0,False,False,0,False,False,False,10.6831710339,False,True,False,53,12092019,60.0095859581,PreComm_Task,277,
13,33,45,42,36,i,12,9,False,False,True,7.64941978455,True,False,False,True,0.216910123825,15.9990799427,0.2,0.23,False,True,False,0,False,False,False,0,False,False,False,42,12092019,60.0095859581,PreComm_Task,277,
14,34,54,25,63,p,20,-9,False,True,False,7.64919614792,True,False,False,False,0,0,1.1,0.21,True,False,False,17.9345180988,False,True,False,0,False,False,False,25,12092019,60.0095859581,PreComm_Task,277,
15,39,43,48,34,c,4,9,False,False,True,7.66560006142,False,True,False,0,0,0,0,0.23,0,False,False,0,False,False,False,10.7163670063,False,False,True,0,12092019,60.0095859581,PreComm_Task,277,
16,63,51,60,54,g,12,3,True,False,False,7.6826300621,True,False,False,True,0.214881181717,16.4317619801,0.6,0.23,False,True,False,0,False,False,False,0,False,False,False,60,12092019,60.0095859581,PreComm_Task,277,
17,55,51,58,48,b,4,-3,True,False,False,7.68263483047,True,False,False,False,0,0,0.5,0.21,True,False,False,17.3678069115,False,True,False,0,False,False,False,58,12092019,60.0095859581,PreComm_Task,277,
18,42,46,29,59,f,4,-13,False,True,False,7.64738702774,True,False,False,True,0.215672969818,16.5981199741,0.8,0.23,False,False,True,0,False,False,False,0,False,False,False,59,12092019,60.0095859581,PreComm_Task,277,
19,21,49,12,58,v,28,-9,False,True,False,7.64959692955,True,False,False,False,0,0,0.9,0.21,True,False,False,17.7343101501,False,False,True,0,False,False,False,58,12092019,60.0095859581,PreComm_Task,277,
20,51,63,38,76,l,12,-13,False,True,False,7.68298602104,False,True,False,0,0,0,0,0.23,0,False,False,0,False,False,False,10.7336061001,True,False,False,76,12092019,60.0095859581,PreComm_Task,277,
21,77,57,90,44,r,20,-13,True,False,False,7.64782691002,False,True,False,0,0,0,0,0.23,0,False,False,0,False,False,False,10.6998949051,False,True,False,90,12092019,60.0095859581,PreComm_Task,277,
22,15,43,2,56,x,28,-13,False,True,False,7.65002703667,True,False,False,True,0.215657949448,16.6994040012,0.9,0.23,False,False,True,0,False,False,False,0,False,False,False,56,12092019,60.0095859581,PreComm_Task,277,
23,80,52,71,61,u,28,9,True,False,False,7.63288497925,True,False,False,False,0,0,0.7,0.21,True,False,False,17.5174510479,False,False,True,0,False,False,False,61,12092019,60.0095859581,PreComm_Task,277,
24,49,21,52,18,t,28,-3,True,False,False,7.64890098572,False,True,False,0,0,0,0,0.23,0,False,False,0,False,False,False,10.7000210285,False,True,False,52,12092019,60.0095859581,PreComm_Task,277,
1,28,40,41,27,k,12,13,False,False,True,7.68169903755,True,False,False,True,0.215713977814,16.4323420525,0.6,0.23,False,True,False,0,False,False,False,0,False,False,False,41,12092019,60.0095859581,PreComm_Task,277,
2,70,42,79,33,v,28,-9,True,False,False,7.64927196503,False,True,False,0,0,0,0,0.21,0,False,False,0,False,False,False,10.7001888752,False,True,False,79,12092019,60.0095859581,PreComm_Task,277,
3,50,46,59,37,d,4,-9,True,False,False,7.64933896065,False,True,False,0,0,0,0,0.21,0,False,False,0,False,False,False,10.7006859779,False,True,False,59,12092019,60.0095859581,PreComm_Task,277,
4,54,66,41,79,l,12,-13,False,True,False,7.66494297981,False,True,False,0,0,0,0,0.21,0,False,False,0,False,False,False,10.7163960934,True,False,False,79,12092019,60.0095859581,PreComm_Task,277,
5,29,57,38,48,u,28,9,False,True,False,7.63216495514,True,False,False,False,0,0,0.9,0.21,True,False,False,17.7172238827,False,False,True,0,False,False,False,48,12092019,60.0095859581,PreComm_Task,277,
6,71,67,58,80,e,4,13,False,False,True,7.64874005318,False,True,False,0,0,0,0,0.23,0,False,False,0,False,False,False,10.6992759705,False,True,False,58,12092019,60.0095859581,PreComm_Task,277,
7,32,52,19,65,r,20,-13,False,True,False,7.63132095337,False,True,False,0,0,0,0,0.23,0,False,False,0,False,False,False,10.6826169491,True,False,False,65,12092019,60.0095859581,PreComm_Task,277,
8,41,45,50,36,c,4,9,False,False,True,7.66593289375,True,False,False,True,0.215984106064,16.9156520367,1.1,0.23,False,True,False,0,False,False,False,0,False,False,False,50,12092019,60.0095859581,PreComm_Task,277,
9,49,53,46,56,b,4,-3,False,True,False,7.64889597893,True,False,False,False,0,0,1.2,0.21,True,False,False,18.0339000225,False,False,True,0,False,False,False,56,12092019,60.0095859581,PreComm_Task,277,
10,74,54,71,57,m,20,3,True,False,False,7.63210988045,False,True,False,0,0,0,0,0.23,0,False,False,0,False,False,False,10.6835479736,False,True,False,71,12092019,60.0095859581,PreComm_Task,277,
11,74,70,87,57,f,4,-13,True,False,False,7.6485118866,True,False,False,False,0,0,0.4,0.23,True,False,False,17.250264883,False,False,True,0,False,False,False,57,12092019,60.0095859581,PreComm_Task,277,
12,62,50,59,53,g,12,3,True,False,False,7.68278694153,False,True,False,0,0,0,0,0.25,0,False,False,0,False,False,False,10.7336111069,False,True,False,59,12092019,60.0095859581,PreComm_Task,277,
13,38,34,35,37,a,4,3,False,False,True,7.64919900894,True,False,False,True,0.215919017792,16.4990289211,0.7,0.25,False,False,True,0,False,False,False,0,False,False,False,37,12092019,60.0095859581,PreComm_Task,277,
14,46,66,59,53,q,20,13,False,False,True,7.63283014297,True,False,False,True,0.214883089066,16.3822240829,0.6,0.23,False,True,False,0,False,False,False,0,False,False,False,59,12092019,60.0095859581,PreComm_Task,277,
15,54,74,51,77,n,20,-3,False,True,False,7.68316102028,False,True,False,0,0,0,0,0.21,0,False,False,0,False,False,False,10.7333469391,False,False,True,0,12092019,60.0095859581,PreComm_Task,277,
16,45,57,42,60,h,12,-3,False,True,False,7.68253087997,True,False,False,False,0,0,0.5,0.21,True,False,False,17.3669140339,False,True,False,0,False,False,False,42,12092019,60.0095859581,PreComm_Task,277,
17,78,66,69,75,i,12,9,False,False,True,7.64878988266,False,True,False,0,0,0,0,0.23,0,False,False,0,False,False,False,10.7002689838,False,True,False,69,12092019,60.0095859581,PreComm_Task,277,
18,63,75,54,84,j,12,-9,False,True,False,7.68276810646,True,False,False,True,0.215882062912,17.0328440666,1.2,0.23,False,False,True,0,False,False,False,0,False,False,False,84,12092019,60.0095859581,PreComm_Task,277,
19,43,15,46,12,t,28,-3,True,False,False,7.64910387993,False,True,False,0,0,0,0,0.21,0,False,False,0,False,False,False,10.7000889778,False,True,False,46,12092019,60.0095859581,PreComm_Task,277,
20,50,30,59,21,p,20,-9,True,False,False,7.66522192955,False,True,False,0,0,0,0,0.21,0,False,False,0,False,False,False,10.7167289257,False,True,False,59,12092019,60.0095859581,PreComm_Task,277,
21,23,51,26,48,s,28,3,False,True,False,7.64896297455,False,True,False,0,0,0,0,0.21,0,False,False,0,False,False,False,10.7005259991,True,False,False,48,12092019,60.0095859581,PreComm_Task,277,
22,22,42,31,33,o,20,9,False,True,False,7.63163304329,False,True,False,0,0,0,0,0.21,0,False,False,0,False,False,False,10.6829481125,True,False,False,33,12092019,60.0095859581,PreComm_Task,277,
23,46,18,59,5,x,28,-13,True,False,False,7.66551184654,False,True,False,0,0,0,0,0.21,0,False,False,0,False,False,False,10.7162549496,False,True,False,59,12092019,60.0095859581,PreComm_Task,277,
24,79,51,66,64,w,28,13,True,False,False,7.64869499207,False,True,False,0,0,0,0,0.21,0,False,False,0,False,False,False,10.6998589039,False,True,False,66,12092019,60.0095859581,PreComm_Task,277,
1,57,53,60,50,b,4,-3,True,False,False,7.66456103325,False,True,False,0,0,0,0,0.21,0,False,False,0,False,False,False,10.7161488533,False,True,False,60,12092019,60.0095859581,PreComm_Task,277,
2,58,38,71,25,r,20,-13,True,False,False,7.66490888596,False,True,False,0,0,0,0,0.21,0,False,False,0,False,False,False,10.7160990238,False,False,True,0,12092019,60.0095859581,PreComm_Task,277,
3,74,54,77,51,n,20,-3,True,False,False,7.64926314354,False,True,False,0,0,0,0,0.21,0,False,False,0,False,False,False,10.7000582218,False,True,False,77,12092019,60.0095859581,PreComm_Task,277,
4,57,45,60,42,h,12,-3,True,False,False,7.66506314278,True,False,False,False,0,0,1.2,0.21,True,False,False,18.0490219593,False,False,True,0,False,False,False,42,12092019,60.0095859581,PreComm_Task,277,
5,39,51,52,38,k,12,13,False,False,True,7.63265490532,False,True,False,0,0,0,0,0.23,0,False,False,0,False,False,False,10.6836700439,True,False,False,38,12092019,60.0095859581,PreComm_Task,277,
6,74,54,71,57,m,20,3,True,False,False,7.66585302353,False,True,False,0,0,0,0,0.23,0,False,False,0,False,False,False,10.7169849873,False,True,False,71,12092019,60.0095859581,PreComm_Task,277,
7,42,54,29,67,l,12,-13,False,True,False,7.68279099464,True,False,False,True,0.215673923492,17.03241992,1.2,0.23,False,False,True,0,False,False,False,0,False,False,False,67,12092019,60.0095859581,PreComm_Task,277,
8,40,52,43,49,g,12,3,False,True,False,7.64868617058,True,False,False,False,0,0,0.3,0.21,True,False,False,17.1341471672,False,False,True,0,False,False,False,49,12092019,60.0095859581,PreComm_Task,277,
9,61,81,74,68,q,20,13,False,False,True,7.66574907303,False,True,False,0,0,0,0,0.23,0,False,False,0,False,False,False,10.7166640759,True,False,False,68,12092019,60.0095859581,PreComm_Task,277,
10,47,43,60,30,f,4,-13,True,False,False,7.64853906631,True,False,False,True,0.21581196785,16.7985520363,1.0,0.23,False,True,False,0,False,False,False,0,False,False,False,60,12092019,60.0095859581,PreComm_Task,277,
11,59,79,50,88,p,20,-9,False,True,False,7.64944791794,False,True,False,0,0,0,0,0.21,0,False,False,0,False,False,False,10.6998000145,True,False,False,88,12092019,60.0095859581,PreComm_Task,277,
12,60,64,69,55,c,4,9,False,False,True,7.63240814209,True,False,False,False,0,0,0.5,0.21,True,False,False,17.3170762062,False,False,True,0,False,False,False,55,12092019,60.0095859581,PreComm_Task,277,
13,52,40,43,49,i,12,9,False,False,True,7.63277411461,True,False,False,True,0.214869976044,16.1819050312,0.4,0.23,False,False,True,0,False,False,False,0,False,False,False,49,12092019,60.0095859581,PreComm_Task,277,
14,51,55,42,64,d,4,-9,False,True,False,7.64962506294,True,False,False,False,0,0,0.2,0.21,True,False,False,17.034001112,False,False,True,0,False,False,False,64,12092019,60.0095859581,PreComm_Task,277,
15,53,81,62,72,u,28,9,False,True,False,7.68265914917,False,True,False,0,0,0,0,0.23,0,False,False,0,False,False,False,10.7337520123,True,False,False,72,12092019,60.0095859581,PreComm_Task,277,
16,56,44,65,35,j,12,-9,True,False,False,7.68199586868,True,False,False,True,0.215812921524,17.0323328972,1.2,0.23,False,True,False,0,False,False,False,0,False,False,False,65,12092019,60.0095859581,PreComm_Task,277,
17,40,44,43,41,a,4,3,False,False,True,7.66591596603,True,False,False,False,0,0,1.1,0.21,True,False,False,17.9507009983,False,False,True,0,False,False,False,41,12092019,60.0095859581,PreComm_Task,277,
18,47,19,56,10,v,28,-9,True,False,False,7.64986395836,False,True,False,0,0,0,0,0.23,0,False,False,0,False,False,False,10.7001881599,False,True,False,56,12092019,60.0095859581,PreComm_Task,277,
19,42,38,29,51,e,4,13,False,False,True,7.66456818581,True,False,False,True,0.215748786926,16.5149981976,0.7,0.23,False,False,True,0,False,False,False,0,False,False,False,51,12092019,60.0095859581,PreComm_Task,277,
20,75,47,78,44,t,28,-3,True,False,False,7.64905190468,False,True,False,0,0,0,0,0.21,0,False,False,0,False,False,False,10.6998369694,False,True,False,78,12092019,60.0095859581,PreComm_Task,277,
21,62,34,59,37,s,28,3,True,False,False,7.64968204498,False,True,False,0,0,0,0,0.21,0,False,False,0,False,False,False,10.7001791,False,True,False,59,12092019,60.0095859581,PreComm_Task,277,
22,75,47,62,60,w,28,13,True,False,False,7.63269495964,False,True,False,0,0,0,0,0.21,0,False,False,0,False,False,False,10.6837778091,False,True,False,62,12092019,60.0095859581,PreComm_Task,277,
23,46,74,33,87,x,28,-13,False,True,False,7.68178582191,False,False,True,0,0,0,0,0.21,0,False,False,0,False,False,False,0,False,True,False,0,12092019,60.0095859581,PreComm_Task,277,
24,28,48,37,39,o,20,9,False,True,False,7.66554403305,True,False,False,False,0,0,0.5,0.21,True,False,False,17.3505489826,False,True,False,0,False,False,False,37,12092019,60.0095859581,PreComm_Task,277,
1,60,40,73,27,r,20,-13,True,False,False,7.64854001999,True,False,False,True,0.215749025345,16.7983019352,1.0,0.23,False,True,False,0,False,False,False,0,False,False,False,73,12092019,60.0095859581,PreComm_Task,277,
2,19,39,10,48,p,20,-9,False,True,False,7.63255000114,False,True,False,0,0,0,0,0.21,0,False,False,0,False,False,False,10.6841738224,True,False,False,48,12092019,60.0095859581,PreComm_Task,277,
3,70,42,61,51,u,28,9,True,False,False,7.64837193489,False,True,False,0,0,0,0,0.21,0,False,False,0,False,False,False,10.6997599602,False,True,False,61,12092019,60.0095859581,PreComm_Task,277,
4,51,63,48,66,h,12,-3,False,True,False,7.66656684875,True,False,False,False,0,0,0.8,0.21,True,False,False,17.6512830257,False,False,True,0,False,False,False,66,12092019,60.0095859581,PreComm_Task,277,
5,64,52,61,55,g,12,3,True,False,False,7.63240194321,True,False,False,True,0.215324878693,16.6827640533,0.9,0.23,False,True,False,0,False,False,False,0,False,False,False,61,12092019,60.0095859581,PreComm_Task,277,
6,72,44,85,31,x,28,-13,True,False,False,7.68247008324,False,True,False,0,0,0,0,0.21,0,False,False,0,False,False,False,10.733289957,False,True,False,85,12092019,60.0095859581,PreComm_Task,277,
7,59,39,56,42,m,20,3,True,False,False,7.64875793457,False,True,False,0,0,0,0,0.21,0,False,False,0,False,False,False,10.7001709938,False,True,False,56,12092019,60.0095859581,PreComm_Task,277,
8,36,32,33,35,a,4,3,False,False,True,7.63217306137,True,False,False,False,0,0,0.2,0.21,True,False,False,17.0169029236,False,True,False,0,False,False,False,33,12092019,60.0095859581,PreComm_Task,277,
9,55,83,58,80,s,28,3,False,True,False,7.66600799561,False,True,False,0,0,0,0,0.23,0,False,False,0,False,False,False,10.716643095,True,False,False,80,12092019,60.0095859581,PreComm_Task,277,
10,34,46,47,33,k,12,13,False,False,True,7.63228487968,True,False,False,True,0.215837955475,16.1824188232,0.4,0.23,False,True,False,0,False,False,False,0,False,False,False,47,12092019,60.0095859581,PreComm_Task,277,
11,46,58,33,71,l,12,-13,False,True,False,7.69920301437,True,False,False,False,0,0,0.3,0.21,True,False,False,17.1839299202,False,False,True,0,False,False,False,71,12092019,60.0095859581,PreComm_Task,277,
12,47,19,50,16,t,28,-3,True,False,False,7.64959907532,False,True,False,0,0,0,0,0.23,0,False,False,0,False,False,False,10.7003741264,False,True,False,50,12092019,60.0095859581,PreComm_Task,277,
13,69,73,56,86,f,4,-13,False,True,False,7.64888501167,True,False,False,True,0.215687036514,16.6984450817,0.9,0.23,False,False,True,0,False,False,False,0,False,False,False,86,12092019,60.0095859581,PreComm_Task,277,
14,57,37,60,34,n,20,-3,True,False,False,7.64859008789,False,True,False,0,0,0,0,0.21,0,False,False,0,False,False,False,10.7001950741,False,True,False,60,12092019,60.0095859581,PreComm_Task,277,
15,74,70,77,67,b,4,-3,True,False,False,7.64927482605,True,False,False,False,0,0,0.4,0.21,True,False,False,17.2336599827,False,False,True,0,False,False,False,67,12092019,60.0095859581,PreComm_Task,277,
16,51,47,60,38,d,4,-9,True,False,False,7.64814305305,True,False,False,True,0.215791940689,16.2985498905,0.5,0.23,False,True,False,0,False,False,False,0,False,False,False,60,12092019,60.0095859581,PreComm_Task,277,
17,72,60,63,69,i,12,9,False,False,True,7.65002989769,False,True,False,0,0,0,0,0.21,0,False,False,0,False,False,False,10.7005238533,False,True,False,63,12092019,60.0095859581,PreComm_Task,277,
18,50,46,41,55,c,4,9,False,False,True,7.66539812088,False,True,False,0,0,0,0,0.21,0,False,False,0,False,False,False,10.7166161537,False,True,False,41,12092019,60.0095859581,PreComm_Task,277,
19,69,65,56,78,e,4,13,False,False,True,7.66517090797,True,False,False,False,0,0,0.8,0.21,True,False,False,17.6504099369,False,False,True,0,False,False,False,78,12092019,60.0095859581,PreComm_Task,277,
20,37,49,28,58,j,12,-9,False,True,False,7.64899492264,True,False,False,True,0.214876890182,16.5988631248,0.8,0.23,False,False,True,0,False,False,False,0,False,False,False,58,12092019,60.0095859581,PreComm_Task,277,
21,77,49,86,40,v,28,-9,True,False,False,7.61611700058,False,True,False,0,0,0,0,0.21,0,False,False,0,False,False,False,10.6667129993,False,True,False,86,12092019,60.0095859581,PreComm_Task,277,
22,86,58,73,71,w,28,13,True,False,False,7.66568398476,False,True,False,0,0,0,0,0.21,0,False,False,0,False,False,False,10.7170379162,False,True,False,73,12092019,60.0095859581,PreComm_Task,277,
23,47,67,60,54,q,20,13,False,False,True,7.63251900673,True,False,False,False,0,0,0.8,0.21,True,False,False,17.6170680523,False,False,True,0,False,False,False,54,12092019,60.0095859581,PreComm_Task,277,
24,41,61,50,52,o,20,9,False,True,False,7.68259191513,False,True,False,0,0,0,0,0.23,0,False,False,0,False,False,False,10.7340481281,True,False,False,52,12092019,60.0095859581,PreComm_Task,277,
