TrialNumber,OptionA,OptionB,EndA,EndB,letter,difference,change,A_alwaysBest,B_alwaysBest,Best_changes,Choice_RT,Choice_Wait,Choice_Commit,Choice_Miss,Press_hit,Play_RT,RT_trialClock_play,ITI_play,Square_timing,Press_miss,Play_win_A,Play_win_B,Late_RT,Play_lost,Play_lost_chosenA,Play_lost_chosenB,Precomm_RT,Precomm_B,Precomm_A,Precomm_miss,Earnings,date,frameRate,expName,participant,
1,46,34,59,21,l,12,-13,True,False,False,7.70443606377,True,False,False,False,0,0,0.6,0.25,True,False,False,17.5215170383,False,True,False,0,False,False,False,59,27092019,59.9477460481,PreComm_Task,700,
2,51,55,38,68,f,4,-13,False,True,False,7.64774394035,True,False,False,False,0,0,0.3,0.27,True,False,False,17.1826848984,False,False,True,0,False,False,False,68,27092019,59.9477460481,PreComm_Task,700,
3,57,85,60,82,s,28,3,False,True,False,7.64894390106,False,True,False,0,0,0,0,0.29,0,False,False,0,False,False,False,10.6993589401,True,False,False,82,27092019,59.9477460481,PreComm_Task,700,
4,27,39,24,42,h,12,-3,False,True,False,7.64862895012,False,True,False,0,0,0,0,0.29,0,False,False,0,False,False,False,10.6991131306,True,False,False,42,27092019,59.9477460481,PreComm_Task,700,
5,60,56,69,47,d,4,-9,True,False,False,7.6484940052,True,False,False,True,0.215245962143,16.3981978893,0.6,0.29,False,True,False,0,False,False,False,0,False,False,False,69,27092019,59.9477460481,PreComm_Task,700,
6,65,61,52,74,e,4,13,False,False,True,7.63256192207,True,False,False,True,0.249409914017,16.0149269104,0.2,0.27,False,False,True,0,False,False,False,0,False,False,False,74,27092019,59.9477460481,PreComm_Task,700,
7,49,77,46,80,t,28,-3,False,True,False,7.61580991745,False,True,False,0,0,0,0,0.25,0,False,False,0,False,False,False,10.6659119129,True,False,False,80,27092019,59.9477460481,PreComm_Task,700,
8,70,58,61,67,i,12,9,False,False,True,7.64909815788,False,True,False,0,0,0,0,0.25,0,False,False,0,False,False,False,10.7003471851,False,True,False,61,27092019,59.9477460481,PreComm_Task,700,
9,68,64,59,73,c,4,9,False,False,True,7.64865088463,True,False,False,True,0.238755226135,16.2216219902,0.4,0.25,False,False,True,0,False,False,False,0,False,False,False,73,27092019,59.9477460481,PreComm_Task,700,
10,39,59,48,50,o,20,9,False,True,False,7.64874601364,False,True,False,0,0,0,0,0.23,0,False,False,0,False,False,False,10.700273037,True,False,False,50,27092019,59.9477460481,PreComm_Task,700,
11,47,59,38,68,j,12,-9,False,True,False,7.63274598122,True,False,False,True,0.21521282196,16.7816269398,1.0,0.23,False,False,True,0,False,False,False,0,False,False,False,68,27092019,59.9477460481,PreComm_Task,700,
12,25,53,34,44,u,28,9,False,True,False,7.64831614494,False,True,False,0,0,0,0,0.21,0,False,False,0,False,False,False,10.6996991634,True,False,False,44,27092019,59.9477460481,PreComm_Task,700,
13,37,65,28,74,v,28,-9,False,True,False,7.64862513542,False,True,False,0,0,0,0,0.21,0,False,False,0,False,False,False,10.7002689838,True,False,False,74,27092019,59.9477460481,PreComm_Task,700,
14,67,63,64,66,a,4,3,False,False,True,7.68298506737,True,False,False,False,0,0,0.4,0.21,True,False,False,17.2667779922,False,False,True,0,False,False,False,66,27092019,59.9477460481,PreComm_Task,700,
15,39,67,26,80,x,28,-13,False,True,False,7.63095378876,False,True,False,0,0,0,0,0.23,0,False,False,0,False,False,False,10.6829938889,True,False,False,80,27092019,59.9477460481,PreComm_Task,700,
16,45,25,58,12,r,20,-13,True,False,False,7.63173699379,False,True,False,0,0,0,0,0.23,0,False,False,0,False,False,False,10.6830480099,False,True,False,58,27092019,59.9477460481,PreComm_Task,700,
17,47,43,50,40,b,4,-3,True,False,False,7.66426992416,True,False,False,True,0.229884147644,16.4291419983,0.6,0.23,False,True,False,0,False,False,False,0,False,False,False,50,27092019,59.9477460481,PreComm_Task,700,
18,15,43,28,30,w,28,13,False,True,False,7.63204312325,True,False,False,False,0,0,0.4,0.21,True,False,False,17.2169530392,False,False,True,0,False,False,False,30,27092019,59.9477460481,PreComm_Task,700,
19,75,55,62,68,q,20,13,False,False,True,7.63275313377,False,True,False,0,0,0,0,0.23,0,False,False,0,False,False,False,10.6837520599,False,True,False,62,27092019,59.9477460481,PreComm_Task,700,
20,34,54,31,57,n,20,-3,False,True,False,7.64925193787,True,False,False,True,0.230635166168,16.613615036,0.8,0.23,False,False,True,0,False,False,False,0,False,False,False,57,27092019,59.9477460481,PreComm_Task,700,
21,67,47,76,38,p,20,-9,True,False,False,7.66538214684,False,True,False,0,0,0,0,0.21,0,False,False,0,False,False,False,10.716353178,False,True,False,76,27092019,59.9477460481,PreComm_Task,700,
22,52,40,49,43,g,12,3,True,False,False,7.63153290749,True,False,False,False,0,0,0.9,0.21,True,False,False,17.715914011,False,True,False,0,False,False,False,49,27092019,59.9477460481,PreComm_Task,700,
23,38,18,35,21,m,20,3,True,False,False,7.66545701027,False,True,False,0,0,0,0,0.23,0,False,False,0,False,False,False,10.7165560722,False,True,False,35,27092019,59.9477460481,PreComm_Task,700,
24,47,59,60,46,k,12,13,False,False,True,7.63232898712,True,False,False,False,0,0,1.2,0.23,True,False,False,18.0332698822,False,True,False,0,False,False,False,60,27092019,59.9477460481,PreComm_Task,700,
1,23,35,32,26,i,12,9,False,False,True,7.63128399849,True,False,False,False,0,0,0.3,0.25,True,False,False,17.1494729519,False,True,False,0,False,False,False,32,27092019,59.9477460481,PreComm_Task,700,
2,47,59,34,72,l,12,-13,False,True,False,7.66595888138,True,False,False,True,0.237577915192,16.4374399185,0.6,0.27,False,False,True,0,False,False,False,0,False,False,False,72,27092019,59.9477460481,PreComm_Task,700,
3,60,56,51,65,c,4,9,False,False,True,7.68266010284,True,False,False,True,0.223520040512,16.939620018,1.1,0.25,False,False,True,0,False,False,False,0,False,False,False,65,27092019,59.9477460481,PreComm_Task,700,
4,25,37,38,24,k,12,13,False,False,True,7.66572403908,True,False,False,True,0.215148925781,16.6153879166,0.8,0.23,False,True,False,0,False,False,False,0,False,False,False,38,27092019,59.9477460481,PreComm_Task,700,
5,61,81,64,78,m,20,3,False,True,False,7.6484811306,True,False,False,False,0,0,1.2,0.21,True,False,False,18.0325841904,False,True,False,0,False,False,False,64,27092019,59.9477460481,PreComm_Task,700,
6,51,39,60,30,j,12,-9,True,False,False,7.63305807114,False,True,False,0,0,0,0,0.23,0,False,False,0,False,False,False,10.6842911243,False,True,False,60,27092019,59.9477460481,PreComm_Task,700,
7,79,59,92,46,r,20,-13,True,False,False,7.64879584312,False,True,False,0,0,0,0,0.23,0,False,False,0,False,False,False,10.6997098923,False,True,False,92,27092019,59.9477460481,PreComm_Task,700,
8,33,45,30,48,h,12,-3,False,True,False,7.63076591492,True,False,False,True,0.229620933533,16.2952098846,0.5,0.23,False,False,True,0,False,False,False,0,False,False,False,48,27092019,59.9477460481,PreComm_Task,700,
9,78,58,65,71,q,20,13,False,False,True,7.66503691673,False,True,False,0,0,0,0,0.21,0,False,False,0,False,False,False,10.7164809704,False,True,False,65,27092019,59.9477460481,PreComm_Task,700,
10,61,65,48,78,f,4,-13,False,True,False,7.63276410103,True,False,False,False,0,0,0.9,0.21,True,False,False,17.7170581818,False,False,True,0,False,False,False,78,27092019,59.9477460481,PreComm_Task,700,
11,60,64,51,73,d,4,-9,False,True,False,7.63153481483,False,True,False,0,0,0,0,0.23,0,False,False,0,False,False,False,10.6836209297,True,False,False,73,27092019,59.9477460481,PreComm_Task,700,
12,38,18,47,9,p,20,-9,True,False,False,7.64898085594,False,True,False,0,0,0,0,0.23,0,False,False,0,False,False,False,10.6999027729,False,True,False,47,27092019,59.9477460481,PreComm_Task,700,
13,52,40,49,43,g,12,3,True,False,False,7.64862108231,True,False,False,False,0,0,0.4,0.23,True,False,False,17.2495560646,False,False,True,0,False,False,False,43,27092019,59.9477460481,PreComm_Task,700,
14,44,64,41,67,n,20,-3,False,True,False,7.63216781616,False,True,False,0,0,0,0,0.25,0,False,False,0,False,False,False,10.6822619438,True,False,False,67,27092019,59.9477460481,PreComm_Task,700,
15,48,52,61,39,e,4,13,False,False,True,7.6324839592,True,False,False,False,0,0,0.6,0.25,True,False,False,17.4500851631,False,False,True,0,False,False,False,39,27092019,59.9477460481,PreComm_Task,700,
16,33,61,30,64,t,28,-3,False,True,False,7.64819407463,False,True,False,0,0,0,0,0.27,0,False,False,0,False,False,False,10.6997220516,True,False,False,64,27092019,59.9477460481,PreComm_Task,700,
17,48,76,51,73,s,28,3,False,True,False,7.63252305984,False,True,False,0,0,0,0,0.27,0,False,False,0,False,False,False,10.6833529472,True,False,False,73,27092019,59.9477460481,PreComm_Task,700,
18,23,51,10,64,x,28,-13,False,True,False,7.66523599625,False,True,False,0,0,0,0,0.27,0,False,False,0,False,False,False,10.717236042,True,False,False,64,27092019,59.9477460481,PreComm_Task,700,
19,19,47,10,56,v,28,-9,False,True,False,7.68102002144,False,True,False,0,0,0,0,0.27,0,False,False,0,False,False,False,10.7328870296,True,False,False,56,27092019,59.9477460481,PreComm_Task,700,
20,35,31,38,28,b,4,-3,True,False,False,7.63194298744,True,False,False,True,0.215226888657,16.8820679188,1.1,0.27,False,True,False,0,False,False,False,0,False,False,False,38,27092019,59.9477460481,PreComm_Task,700,
21,59,55,56,58,a,4,3,False,False,True,7.63193702698,True,False,False,False,0,0,1.1,0.25,True,False,False,17.9500300884,False,False,True,0,False,False,False,58,27092019,59.9477460481,PreComm_Task,700,
22,81,53,72,62,u,28,9,True,False,False,7.66518092155,False,True,False,0,0,0,0,0.27,0,False,False,0,False,False,False,10.7164540291,False,True,False,72,27092019,59.9477460481,PreComm_Task,700,
23,77,49,64,62,w,28,13,True,False,False,7.66560983658,False,True,False,0,0,0,0,0.27,0,False,False,0,False,False,False,10.7162499428,False,True,False,64,27092019,59.9477460481,PreComm_Task,700,
24,52,32,43,41,o,20,9,True,False,False,7.66517901421,True,False,False,False,0,0,0.2,0.27,True,False,False,17.0996980667,False,False,True,0,False,False,False,41,27092019,59.9477460481,PreComm_Task,700,
1,41,61,38,64,n,20,-3,False,True,False,7.65160989761,False,True,False,0,0,0,0,0.29,0,False,False,0,False,False,False,10.7029519081,True,False,False,64,27092019,59.9477460481,PreComm_Task,700,
2,77,65,86,56,j,12,-9,True,False,False,7.64866495132,False,True,False,0,0,0,0,0.29,0,False,False,0,False,False,False,10.7001459599,False,True,False,86,27092019,59.9477460481,PreComm_Task,700,
3,45,57,42,60,h,12,-3,False,True,False,7.64824986458,False,True,False,0,0,0,0,0.29,0,False,False,0,False,False,False,10.6995739937,True,False,False,60,27092019,59.9477460481,PreComm_Task,700,
4,60,32,51,41,u,28,9,True,False,False,7.66588497162,False,True,False,0,0,0,0,0.29,0,False,False,0,False,False,False,10.7167031765,False,True,False,51,27092019,59.9477460481,PreComm_Task,700,
5,70,74,73,71,a,4,3,False,False,True,7.63206100464,False,True,False,0,0,0,0,0.29,0,False,False,0,False,False,False,10.6836659908,True,False,False,71,27092019,59.9477460481,PreComm_Task,700,
6,44,40,35,49,c,4,9,False,False,True,7.66622781754,True,False,False,False,0,0,0.6,0.29,True,False,False,17.5174508095,False,True,False,0,False,False,False,35,27092019,59.9477460481,PreComm_Task,700,
7,77,49,80,46,t,28,-3,True,False,False,7.63203477859,False,True,False,0,0,0,0,0.31,0,False,False,0,False,False,False,10.6832139492,False,True,False,80,27092019,59.9477460481,PreComm_Task,700,
8,23,51,10,64,x,28,-13,False,True,False,7.68251299858,True,False,False,True,0.216204166412,16.2329781055,0.4,0.31,False,False,True,0,False,False,False,0,False,False,False,64,27092019,59.9477460481,PreComm_Task,700,
9,22,42,31,33,o,20,9,False,True,False,7.63296413422,False,True,False,0,0,0,0,0.29,0,False,False,0,False,False,False,10.6841700077,True,False,False,33,27092019,59.9477460481,PreComm_Task,700,
10,64,52,51,65,k,12,13,False,False,True,7.64877104759,True,False,False,True,0.254528999329,16.0360560417,0.2,0.29,False,False,True,0,False,False,False,0,False,False,False,65,27092019,59.9477460481,PreComm_Task,700,
11,59,31,56,34,s,28,3,True,False,False,7.63190889359,False,True,False,0,0,0,0,0.27,0,False,False,0,False,False,False,10.6828508377,False,True,False,56,27092019,59.9477460481,PreComm_Task,700,
12,45,49,36,58,d,4,-9,False,True,False,7.6488301754,True,False,False,False,0,0,0.6,0.27,True,False,False,17.4835879803,False,False,True,0,False,False,False,58,27092019,59.9477460481,PreComm_Task,700,
13,43,55,46,52,g,12,3,False,True,False,7.68218588829,False,True,False,0,0,0,0,0.29,0,False,False,0,False,False,False,10.7334549427,True,False,False,52,27092019,59.9477460481,PreComm_Task,700,
14,49,53,36,66,f,4,-13,False,True,False,7.68174004555,True,False,False,True,0.219620943069,16.3364081383,0.5,0.29,False,False,True,0,False,False,False,0,False,False,False,66,27092019,59.9477460481,PreComm_Task,700,
15,59,71,68,62,i,12,9,False,False,True,7.63126897812,False,False,True,0,0,0,0,0.27,0,False,True,0,False,False,False,0,False,False,False,0,27092019,59.9477460481,PreComm_Task,700,
16,31,59,44,46,w,28,13,False,True,False,7.64910197258,False,True,False,0,0,0,0,0.27,0,False,False,0,False,False,False,10.7005500793,True,False,False,46,27092019,59.9477460481,PreComm_Task,700,
17,61,81,48,94,r,20,-13,False,True,False,7.68235588074,True,False,False,True,0.215113162994,16.2317409515,0.4,0.27,False,False,True,0,False,False,False,0,False,False,False,94,27092019,59.9477460481,PreComm_Task,700,
18,52,80,43,89,v,28,-9,False,True,False,7.63245797157,False,True,False,0,0,0,0,0.25,0,False,False,0,False,False,False,10.6834518909,True,False,False,89,27092019,59.9477460481,PreComm_Task,700,
19,65,69,78,56,e,4,13,False,False,True,7.63174200058,True,False,False,True,0.246222019196,16.7124350071,0.9,0.25,False,True,False,0,False,False,False,0,False,False,False,78,27092019,59.9477460481,PreComm_Task,700,
20,64,44,61,47,m,20,3,True,False,False,7.64865803719,True,False,False,False,0,0,1.1,0.23,True,False,False,17.9500310421,False,True,False,0,False,False,False,61,27092019,59.9477460481,PreComm_Task,700,
21,65,77,52,90,l,12,-13,False,True,False,7.6485209465,True,False,False,True,0.223168134689,16.4054489136,0.6,0.25,False,False,True,0,False,False,False,0,False,False,False,90,27092019,59.9477460481,PreComm_Task,700,
22,45,65,36,74,p,20,-9,False,True,False,7.64878797531,False,True,False,0,0,0,0,0.23,0,False,False,0,False,False,False,10.6998398304,True,False,False,74,27092019,59.9477460481,PreComm_Task,700,
23,34,54,47,41,q,20,13,False,False,True,7.66550683975,True,False,False,True,0.215721130371,16.9158599377,1.1,0.23,False,True,False,0,False,False,False,0,False,False,False,47,27092019,59.9477460481,PreComm_Task,700,
24,65,61,68,58,b,4,-3,True,False,False,7.64872193336,True,False,False,False,0,0,0.5,0.21,True,False,False,17.3338999748,False,False,True,0,False,False,False,58,27092019,59.9477460481,PreComm_Task,700,
1,43,15,34,24,u,28,9,True,False,False,7.66535806656,False,True,False,0,0,0,0,0.23,0,False,False,0,False,False,False,10.7160470486,False,True,False,34,27092019,59.9477460481,PreComm_Task,700,
2,56,28,69,15,x,28,-13,True,False,False,7.6147351265,False,True,False,0,0,0,0,0.23,0,False,False,0,False,False,False,10.6664860249,False,True,False,69,27092019,59.9477460481,PreComm_Task,700,
3,64,52,73,43,j,12,-9,True,False,False,7.64886188507,False,True,False,0,0,0,0,0.23,0,False,False,0,False,False,False,10.6997890472,False,True,False,73,27092019,59.9477460481,PreComm_Task,700,
4,43,31,40,34,g,12,3,True,False,False,7.6318731308,True,False,False,False,0,0,0.4,0.23,True,False,False,17.2320151329,False,True,False,0,False,False,False,40,27092019,59.9477460481,PreComm_Task,700,
5,50,70,53,67,m,20,3,False,True,False,7.64943289757,False,True,False,0,0,0,0,0.25,0,False,False,0,False,False,False,10.7007279396,True,False,False,67,27092019,59.9477460481,PreComm_Task,700,
6,41,29,28,42,k,12,13,False,False,True,7.63221597672,False,True,False,0,0,0,0,0.25,0,False,False,0,False,False,False,10.6834270954,False,True,False,28,27092019,59.9477460481,PreComm_Task,700,
7,71,51,58,64,q,20,13,False,False,True,7.66538000107,False,True,False,0,0,0,0,0.25,0,False,False,0,False,False,False,10.7175250053,False,True,False,58,27092019,59.9477460481,PreComm_Task,700,
8,48,44,51,41,b,4,-3,True,False,False,7.66635704041,True,False,False,True,0.217564105988,16.6172671318,0.8,0.25,False,True,False,0,False,False,False,0,False,False,False,51,27092019,59.9477460481,PreComm_Task,700,
9,56,84,47,93,v,28,-9,False,True,False,7.64818787575,False,True,False,0,0,0,0,0.23,0,False,False,0,False,False,False,10.6992518902,True,False,False,93,27092019,59.9477460481,PreComm_Task,700,
10,53,73,44,82,p,20,-9,False,True,False,7.64986491203,False,True,False,0,0,0,0,0.23,0,False,False,0,False,False,False,10.7005808353,True,False,False,82,27092019,59.9477460481,PreComm_Task,700,
11,39,35,48,26,d,4,-9,True,False,False,7.68223619461,True,False,False,True,0.216136932373,16.4325380325,0.6,0.23,False,True,False,0,False,False,False,0,False,False,False,48,27092019,59.9477460481,PreComm_Task,700,
12,68,40,55,53,w,28,13,True,False,False,7.68111801147,False,True,False,0,0,0,0,0.21,0,False,False,0,False,False,False,10.732847929,False,True,False,55,27092019,59.9477460481,PreComm_Task,700,
13,36,56,23,69,r,20,-13,False,True,False,7.63243198395,False,True,False,0,0,0,0,0.21,0,False,False,0,False,False,False,10.6824889183,True,False,False,69,27092019,59.9477460481,PreComm_Task,700,
14,64,44,55,53,o,20,9,True,False,False,7.64831781387,False,True,False,0,0,0,0,0.21,0,False,False,0,False,False,False,10.6999099255,False,True,False,55,27092019,59.9477460481,PreComm_Task,700,
15,47,43,38,52,c,4,9,False,False,True,7.6481859684,True,False,False,False,0,0,0.2,0.21,True,False,False,17.0332119465,False,False,True,0,False,False,False,52,27092019,59.9477460481,PreComm_Task,700,
16,67,55,58,64,i,12,9,False,False,True,7.64982008934,True,False,False,False,0,0,0.3,0.23,True,False,False,17.1510159969,False,False,True,0,False,False,False,64,27092019,59.9477460481,PreComm_Task,700,
17,71,43,68,46,s,28,3,True,False,False,7.68197798729,False,True,False,0,0,0,0,0.25,0,False,False,0,False,False,False,10.733549118,False,True,False,68,27092019,59.9477460481,PreComm_Task,700,
18,69,57,72,54,h,12,-3,True,False,False,7.63279795647,False,True,False,0,0,0,0,0.25,0,False,False,0,False,False,False,10.6840291023,False,True,False,72,27092019,59.9477460481,PreComm_Task,700,
19,32,44,19,57,l,12,-13,False,True,False,7.64865708351,False,True,False,0,0,0,0,0.25,0,False,False,0,False,False,False,10.7004981041,True,False,False,57,27092019,59.9477460481,PreComm_Task,700,
20,49,45,46,48,a,4,3,False,False,True,7.64886307716,False,True,False,0,0,0,0,0.25,0,False,False,0,False,False,False,10.6999809742,False,True,False,46,27092019,59.9477460481,PreComm_Task,700,
21,44,40,57,27,f,4,-13,True,False,False,7.63104510307,True,False,False,True,0.242255926132,16.8079149723,1.0,0.25,False,True,False,0,False,False,False,0,False,False,False,57,27092019,59.9477460481,PreComm_Task,700,
22,26,54,23,57,t,28,-3,False,True,False,7.68217515945,False,True,False,0,0,0,0,0.23,0,False,False,0,False,False,False,10.7330541611,True,False,False,57,27092019,59.9477460481,PreComm_Task,700,
23,69,73,82,60,e,4,13,False,False,True,7.66512084007,True,False,False,True,0.21518778801,16.7146987915,0.9,0.23,False,True,False,0,False,False,False,0,False,False,False,82,27092019,59.9477460481,PreComm_Task,700,
24,47,27,50,24,n,20,-3,True,False,False,7.61559700966,False,True,False,0,0,0,0,0.21,0,False,False,0,False,False,False,10.6666359901,False,True,False,50,27092019,59.9477460481,PreComm_Task,700,
